STUDYID|DOMAIN|USUBJID|SUBJID|RFSTDTC|RFENDTC|RFXSTDTC|RFXENDTC|RFICDTC|RFPENDTC|DTHDTC|DTHFL|SITEID|BRTHDTC|AGE|AGEU|SEX|RACE|ETHNIC|ARMCD|ARM|ACTARMCD|ACTARM|ACTARMUD|COUNTRY|DMDTC|DMDY|ARMNRS
e|DM|35f5401f-575a-44dc-9141-8084716a5b70|35f5401f-575a-44dc-9141-8084716a5b70|2020-10-11|2020-10-31|2020-10-11|2021-01-18|2020-10-11|2021-01-18|||Pend Oreille Village|2021-01-17|21|YEARS|M|UNKNOWN|UNKNOWN|5-P-10|5mg - Placebo- 10mg|5-P-10|5mg - Placebo- 10mg|[?]|UMI|2020-11-28|49|
e|DM|8a863a88-67d8-4e50-bafa-c3146591f046|8a863a88-67d8-4e50-bafa-c3146591f046|2020-12-20|2021-03-10|2020-12-20|2021-03-29|2020-12-20|2021-03-29|||Phoenix|2021-03-09|45|YEARS|M|NATIVE HAWAIIAN OR OTHER PACIFIC ISLANDER|NOT HISPANIC OR LATINO|P-5-10|Placebo - 5mg - 10mg|P-5-10|Placebo - 5mg - 10mg|[?]|UMI|2021-01-28|40|
e|DM|f8e8acef-d26d-40c0-9bf0-fe7ac24c9fea|f8e8acef-d26d-40c0-9bf0-fe7ac24c9fea|2020-07-25|2020-08-19|2020-07-25|2020-11-01|2020-07-25|2020-11-01|||Sanner Estates|2020-08-17|39|YEARS|M|NOT REPORTED|NOT REPORTED|P-5-10|Placebo - 5mg - 10mg|P-5-10|Placebo - 5mg - 10mg|[?]|UMI|2020-10-30|98|
e|DM|0558cb35-f542-4f9a-a7e7-18b1d71be69c|0558cb35-f542-4f9a-a7e7-18b1d71be69c|2020-12-11|2020-12-18|2020-12-11|2021-03-20|2020-12-11|2021-03-20|||Rosebud|2021-03-12|78|YEARS|F|BLACK OR AFRICAN AMERICAN|NOT HISPANIC OR LATINO|5-P-10|5mg - Placebo- 10mg|5-P-10|5mg - Placebo- 10mg|[?]|UMI|2021-01-19|40|
e|DM|a9cf4d21-c2a8-4f32-b932-f05d2d317400|a9cf4d21-c2a8-4f32-b932-f05d2d317400|2020-06-24|2020-08-22|2020-06-24|2020-10-01|2020-06-24|2020-10-01|||Pomfret Estates|2020-08-09|64|YEARS|M|NOT REPORTED|NOT REPORTED|5-10-P|5mg - 10mg- Placebo|5-10-P|5mg - 10mg- Placebo|[?]|UMI|2020-09-03|72|
e|DM|0389257f-50de-4a05-8f2a-69c068374337|0389257f-50de-4a05-8f2a-69c068374337|2020-09-29|2020-10-19|2020-09-29|2021-01-06|2020-09-29|2021-01-06|||Loughberry Mobile Home Park|2020-12-14|30|YEARS|F|UNKNOWN|NOT HISPANIC OR LATINO|5-P-10|5mg - Placebo- 10mg|5-P-10|5mg - Placebo- 10mg|[?]|UMI|2020-12-07|70|
e|DM|279ca0c7-7c4e-4cd7-a3b6-87bc5c037352|279ca0c7-7c4e-4cd7-a3b6-87bc5c037352|2020-12-06|2021-03-10|2020-12-06|2021-03-15|2020-12-06|2021-03-15|||Lakeside Park|2021-01-01|55|YEARS|M|ASIAN|NOT HISPANIC OR LATINO|5-10-P|5mg - 10mg- Placebo|5-10-P|5mg - 10mg- Placebo|[?]|UMI|2021-02-06|63|
e|DM|ca4e757f-268f-4f3f-b0d0-950bf9c26b08|ca4e757f-268f-4f3f-b0d0-950bf9c26b08|2020-12-13|2021-01-29|2020-12-13|2021-03-22|2020-12-13|2021-03-22|||Big Bear City|2020-12-17|71|YEARS|F|WHITE|HISPANIC OR LATINO|5-P-10|5mg - Placebo- 10mg|5-P-10|5mg - Placebo- 10mg|[?]|UMI|2021-03-11|89|
e|DM|ad402b62-0625-431b-9bd7-ffd6124610f3|ad402b62-0625-431b-9bd7-ffd6124610f3|2020-09-16|2020-12-23|2020-09-16|2020-12-24|2020-09-16|2020-12-24|||Coolidge (historical)|2020-11-20|59|YEARS|F|UNKNOWN|NOT HISPANIC OR LATINO|P-5-10|Placebo - 5mg - 10mg|P-5-10|Placebo - 5mg - 10mg|[?]|UMI|2020-10-07|22|
e|DM|d76b0f55-541c-491d-9162-4c133c9509f1|d76b0f55-541c-491d-9162-4c133c9509f1|2020-05-15|2020-06-01|2020-05-15|2020-08-22|2020-05-15|2020-08-22|||Warnerton|2020-08-04|31|YEARS|M|ASIAN|NOT REPORTED|5-P-10|5mg - Placebo- 10mg|5-P-10|5mg - Placebo- 10mg|[?]|UMI|2020-05-16|2|
e|DM|146059d8-5652-41cd-b484-c6e5d8ea540f|146059d8-5652-41cd-b484-c6e5d8ea540f|2020-08-17|2020-09-24|2020-08-17|2020-11-24|2020-08-17|2020-11-24|||Singers Corners (historical)|2020-08-19|48|YEARS|M|AMERICAN INDIAN OR ALASKA NATIVE|NOT REPORTED|5-P-10|5mg - Placebo- 10mg|5-P-10|5mg - Placebo- 10mg|[?]|UMI|2020-10-29|74|
e|DM|3d5f1964-b65c-4a0a-bb5b-1689308754d8|3d5f1964-b65c-4a0a-bb5b-1689308754d8|2020-10-26|2020-10-29|2020-10-26|2021-02-02|2020-10-26|2021-02-02|||Douglas|2020-12-08|53|YEARS|F|BLACK OR AFRICAN AMERICAN|UNKNOWN|5-P-10|5mg - Placebo- 10mg|5-P-10|5mg - Placebo- 10mg|[?]|UMI|2020-11-15|21|
e|DM|129dc836-068a-463e-b789-a0d05c60605d|129dc836-068a-463e-b789-a0d05c60605d|2020-06-27|2020-08-12|2020-06-27|2020-10-04|2020-06-27|2020-10-04|||Upper Red Hook|2020-09-19|58|YEARS|M|BLACK OR AFRICAN AMERICAN|UNKNOWN|5-10-P|5mg - 10mg- Placebo|5-10-P|5mg - 10mg- Placebo|[?]|UMI|2020-08-03|38|
e|DM|9ef8a6d4-8326-4050-be85-e9f8983f55c1|9ef8a6d4-8326-4050-be85-e9f8983f55c1|2020-10-29|2020-12-20|2020-10-29|2021-02-05|2020-10-29|2021-02-05|||Baroda|2021-01-30|39|YEARS|F|WHITE|HISPANIC OR LATINO|5-P-10|5mg - Placebo- 10mg|5-P-10|5mg - Placebo- 10mg|[?]|UMI|2021-01-16|80|
e|DM|b91c4469-b3be-467f-8512-b73cf561e168|b91c4469-b3be-467f-8512-b73cf561e168|2020-05-09|2020-05-28|2020-05-09|2020-08-16|2020-05-09|2020-08-16|||Klickitat|2020-06-18|65|YEARS|F|ASIAN|UNKNOWN|5-10-P|5mg - 10mg- Placebo|5-10-P|5mg - 10mg- Placebo|[?]|UMI|2020-06-25|48|
e|DM|3637e1e0-8c0c-45cc-b139-e812a589f940|3637e1e0-8c0c-45cc-b139-e812a589f940|2020-08-21|2020-08-23|2020-08-21|2020-11-28|2020-08-21|2020-11-28|||La Miligrosa|2020-08-28|10|YEARS|M|ASIAN|NOT REPORTED|P-5-10|Placebo - 5mg - 10mg|P-5-10|Placebo - 5mg - 10mg|[?]|UMI|2020-09-28|39|
e|DM|23385974-5fcd-4c36-b9fa-2fbb3841f182|23385974-5fcd-4c36-b9fa-2fbb3841f182|2020-11-18|2020-12-19|2020-11-18|2021-02-25|2020-11-18|2021-02-25|||Campbell Creek|2020-11-30|41|YEARS|F|NATIVE HAWAIIAN OR OTHER PACIFIC ISLANDER|NOT HISPANIC OR LATINO|5-P-10|5mg - Placebo- 10mg|5-P-10|5mg - Placebo- 10mg|[?]|UMI|2021-01-11|55|
e|DM|b76a836f-57ee-4e3d-89c4-31fdef04e5fe|b76a836f-57ee-4e3d-89c4-31fdef04e5fe|2020-11-27|2021-01-06|2020-11-27|2021-03-06|2020-11-27|2021-03-06|||Split Silk|2020-12-08|23|YEARS|F|NOT REPORTED|HISPANIC OR LATINO|5-P-10|5mg - Placebo- 10mg|5-P-10|5mg - Placebo- 10mg|[?]|UMI|2020-12-05|9|
e|DM|f1327e16-08c6-4ef0-852e-13c095a94c00|f1327e16-08c6-4ef0-852e-13c095a94c00|2020-05-17|2020-06-18|2020-05-17|2020-08-24|2020-05-17|2020-08-24|||Rienzi|2020-08-14|39|YEARS|M|NOT REPORTED|NOT HISPANIC OR LATINO|5-10-P|5mg - 10mg- Placebo|5-10-P|5mg - 10mg- Placebo|[?]|UMI|2020-05-27|11|
e|DM|52de3d1f-e750-49f3-9cfa-09ac97a5dd4b|52de3d1f-e750-49f3-9cfa-09ac97a5dd4b|2021-01-06|2021-04-04|2021-01-06|2021-04-15|2021-01-06|2021-04-15|||Russell Crossing|2021-02-16|77|YEARS|F|ASIAN|NOT REPORTED|5-P-10|5mg - Placebo- 10mg|5-P-10|5mg - Placebo- 10mg|[?]|UMI|2021-03-24|78|
e|DM|e8065021-c163-41c8-8a76-5f0c1c3a06c4|e8065021-c163-41c8-8a76-5f0c1c3a06c4|2020-11-29|2020-12-24|2020-11-29|2021-03-08|2020-11-29|2021-03-08|||Center Branch|2020-12-22|12|YEARS|F|NOT REPORTED|NOT REPORTED|5-10-P|5mg - 10mg- Placebo|5-10-P|5mg - 10mg- Placebo|[?]|UMI|2021-03-03|95|
e|DM|854a9218-995e-47f4-87ab-e58d20f56d19|854a9218-995e-47f4-87ab-e58d20f56d19|2020-11-14|2021-02-14|2020-11-14|2021-02-21|2020-11-14|2021-02-21|2021-02-21|Y|Rogers|2020-11-26|23|YEARS|M|NOT REPORTED|HISPANIC OR LATINO|5-P-10|5mg - Placebo- 10mg|5-P-10|5mg - Placebo- 10mg|[?]|UMI|2020-11-22|9|
e|DM|7865f4e0-11d8-45f7-b0d1-0fd7bb4c1311|7865f4e0-11d8-45f7-b0d1-0fd7bb4c1311|2020-06-12|2020-06-25|2020-06-12|2020-09-19|2020-06-12|2020-09-19|||Bombay Woods|2020-06-22|29|YEARS|M|BLACK OR AFRICAN AMERICAN|HISPANIC OR LATINO|5-10-P|5mg - 10mg- Placebo|5-10-P|5mg - 10mg- Placebo|[?]|UMI|2020-07-09|28|
e|DM|08944dcd-a62d-4932-bb15-a8f15cc73229|08944dcd-a62d-4932-bb15-a8f15cc73229|2020-12-14|2021-03-10|2020-12-14|2021-03-23|2020-12-14|2021-03-23|||Gray Acres Mobile Home Park|2021-01-22|56|YEARS|M|ASIAN|HISPANIC OR LATINO|P-5-10|Placebo - 5mg - 10mg|P-5-10|Placebo - 5mg - 10mg|[?]|UMI|2021-02-19|68|
e|DM|1d7df560-695a-41fe-9226-4cc206b05f48|1d7df560-695a-41fe-9226-4cc206b05f48|2020-11-30|2021-01-12|2020-11-30|2021-03-09|2020-11-30|2021-03-09|||Roanoke|2021-02-01|67|YEARS|F|BLACK OR AFRICAN AMERICAN|HISPANIC OR LATINO|5-P-10|5mg - Placebo- 10mg|5-P-10|5mg - Placebo- 10mg|[?]|UMI|2021-01-20|52|
e|DM|12c802a8-862c-45a4-b12c-a6f920772534|12c802a8-862c-45a4-b12c-a6f920772534|2020-06-08|2020-08-23|2020-06-08|2020-09-15|2020-06-08|2020-09-15|2020-09-15|Y|Walston Switch|2020-08-11|68|YEARS|M|NATIVE HAWAIIAN OR OTHER PACIFIC ISLANDER|HISPANIC OR LATINO|P-5-10|Placebo - 5mg - 10mg|P-5-10|Placebo - 5mg - 10mg|[?]|UMI|2020-09-05|90|
e|DM|1ac2ce3b-f73f-4a46-a8fe-ea44dfc635a3|1ac2ce3b-f73f-4a46-a8fe-ea44dfc635a3|2020-11-14|2020-12-07|2020-11-14|2021-02-21|2020-11-14|2021-02-21|||Gross Point|2020-12-04|76|YEARS|M|AMERICAN INDIAN OR ALASKA NATIVE|UNKNOWN|5-10-P|5mg - 10mg- Placebo|5-10-P|5mg - 10mg- Placebo|[?]|UMI|2021-02-01|80|
e|DM|6c1628af-ea1b-40ea-80fd-667bcfc29a4b|6c1628af-ea1b-40ea-80fd-667bcfc29a4b|2020-08-07|2020-11-01|2020-08-07|2020-11-14|2020-08-07|2020-11-14|||Sherwood Forest|2020-09-23|78|YEARS|M|BLACK OR AFRICAN AMERICAN|UNKNOWN|P-5-10|Placebo - 5mg - 10mg|P-5-10|Placebo - 5mg - 10mg|[?]|UMI|2020-08-13|7|
e|DM|96114171-59a0-4543-b3ec-c7796ae8ee92|96114171-59a0-4543-b3ec-c7796ae8ee92|2020-11-15|2021-01-24|2020-11-15|2021-02-22|2020-11-15|2021-02-22|||Robert Taylor Homes (historical)|2020-12-31|32|YEARS|M|BLACK OR AFRICAN AMERICAN|NOT REPORTED|5-P-10|5mg - Placebo- 10mg|5-P-10|5mg - Placebo- 10mg|[?]|UMI|2021-01-22|69|
e|DM|0070d42d-c864-4a83-a3c9-4c8ca7de51de|0070d42d-c864-4a83-a3c9-4c8ca7de51de|2020-08-06|2020-08-17|2020-08-06|2020-11-13|2020-08-06|2020-11-13|2020-11-13|Y|Thawville|2020-09-02|49|YEARS|M|NOT REPORTED|NOT REPORTED|P-5-10|Placebo - 5mg - 10mg|P-5-10|Placebo - 5mg - 10mg|[?]|UMI|2020-10-10|66|
e|DM|a2ec3389-6f5f-44a3-a6dd-f6177a805791|a2ec3389-6f5f-44a3-a6dd-f6177a805791|2020-10-08|2020-12-26|2020-10-08|2021-01-15|2020-10-08|2021-01-15|||High Flats|2021-01-07|58|YEARS|M|WHITE|UNKNOWN|5-P-10|5mg - Placebo- 10mg|5-P-10|5mg - Placebo- 10mg|[?]|UMI|2020-12-02|56|
e|DM|cc562042-9641-460d-862e-d6923dd4207d|cc562042-9641-460d-862e-d6923dd4207d|2020-05-18|2020-07-04|2020-05-18|2020-08-25|2020-05-18|2020-08-25|||Nonatomqua Mobile Home Park|2020-08-02|67|YEARS|M|BLACK OR AFRICAN AMERICAN|HISPANIC OR LATINO|5-P-10|5mg - Placebo- 10mg|5-P-10|5mg - Placebo- 10mg|[?]|UMI|2020-07-14|58|
e|DM|d0a4f2af-eb3c-4f04-b16d-b3ef5a8d0646|d0a4f2af-eb3c-4f04-b16d-b3ef5a8d0646|2020-07-21|2020-09-30|2020-07-21|2020-10-28|2020-07-21|2020-10-28|||Orviston|2020-09-21|27|YEARS|M|AMERICAN INDIAN OR ALASKA NATIVE|NOT HISPANIC OR LATINO|5-10-P|5mg - 10mg- Placebo|5-10-P|5mg - 10mg- Placebo|[?]|UMI|2020-10-16|88|
e|DM|d90f2824-692e-403f-b1ca-5b6462c93a75|d90f2824-692e-403f-b1ca-5b6462c93a75|2020-07-06|2020-07-13|2020-07-06|2020-10-13|2020-07-06|2020-10-13|||Rockefeller|2020-08-12|77|YEARS|F|BLACK OR AFRICAN AMERICAN|NOT REPORTED|5-10-P|5mg - 10mg- Placebo|5-10-P|5mg - 10mg- Placebo|[?]|UMI|2020-08-20|46|
e|DM|ee0e55e1-6107-4a3c-85b4-cb48300153e8|ee0e55e1-6107-4a3c-85b4-cb48300153e8|2020-05-16|2020-07-26|2020-05-16|2020-08-23|2020-05-16|2020-08-23|||Western|2020-07-20|33|YEARS|M|AMERICAN INDIAN OR ALASKA NATIVE|NOT HISPANIC OR LATINO|P-5-10|Placebo - 5mg - 10mg|P-5-10|Placebo - 5mg - 10mg|[?]|UMI|2020-06-28|44|
e|DM|6aa37bb3-85aa-427f-9e56-a776257f1548|6aa37bb3-85aa-427f-9e56-a776257f1548|2020-11-05|2020-11-28|2020-11-05|2021-02-12|2020-11-05|2021-02-12|||Acropolis (historical)|2021-01-22|27|YEARS|M|AMERICAN INDIAN OR ALASKA NATIVE|NOT REPORTED|5-10-P|5mg - 10mg- Placebo|5-10-P|5mg - 10mg- Placebo|[?]|UMI|2021-01-14|71|
e|DM|592c5ea9-d4ca-4c3a-a836-6d88f2b93303|592c5ea9-d4ca-4c3a-a836-6d88f2b93303|2020-05-09|2020-05-31|2020-05-09|2020-08-16|2020-05-09|2020-08-16|||Ocean Aire Estates Mobile Home Park|2020-07-20|48|YEARS|F|AMERICAN INDIAN OR ALASKA NATIVE|NOT HISPANIC OR LATINO|P-5-10|Placebo - 5mg - 10mg|P-5-10|Placebo - 5mg - 10mg|[?]|UMI|2020-06-11|34|
e|DM|940d4614-b41a-44d3-b878-6e19ee22f24b|940d4614-b41a-44d3-b878-6e19ee22f24b|2020-06-27|2020-08-05|2020-06-27|2020-10-04|2020-06-27|2020-10-04|||Seal|2020-09-04|28|YEARS|F|WHITE|NOT REPORTED|5-P-10|5mg - Placebo- 10mg|5-P-10|5mg - Placebo- 10mg|[?]|UMI|2020-07-27|31|
e|DM|e2edd4f0-926b-4514-bf3f-7449f248343f|e2edd4f0-926b-4514-bf3f-7449f248343f|2020-10-23|2020-10-28|2020-10-23|2021-01-30|2020-10-23|2021-01-30|||Hazen|2020-12-17|42|YEARS|M|BLACK OR AFRICAN AMERICAN|UNKNOWN|P-5-10|Placebo - 5mg - 10mg|P-5-10|Placebo - 5mg - 10mg|[?]|UMI|2020-11-13|22|
e|DM|215d711d-c98a-4f7b-ba41-d2c06ad70ddd|215d711d-c98a-4f7b-ba41-d2c06ad70ddd|2020-06-19|2020-07-03|2020-06-19|2020-09-26|2020-06-19|2020-09-26|||Campo Bonito|2020-08-20|68|YEARS|F|NOT REPORTED|UNKNOWN|5-10-P|5mg - 10mg- Placebo|5-10-P|5mg - 10mg- Placebo|[?]|UMI|2020-08-06|49|
e|DM|493a53ef-01ab-470c-9bbe-7c2aa48b946b|493a53ef-01ab-470c-9bbe-7c2aa48b946b|2020-07-04|2020-08-26|2020-07-04|2020-10-11|2020-07-04|2020-10-11|||Woodall|2020-08-28|60|YEARS|M|NOT REPORTED|HISPANIC OR LATINO|P-5-10|Placebo - 5mg - 10mg|P-5-10|Placebo - 5mg - 10mg|[?]|UMI|2020-08-11|39|
e|DM|ba33de14-b676-4389-a863-a7fa3edb8543|ba33de14-b676-4389-a863-a7fa3edb8543|2020-10-25|2021-01-28|2020-10-25|2021-02-01|2020-10-25|2021-02-01|||Merrittstown|2020-12-12|73|YEARS|F|UNKNOWN|UNKNOWN|P-5-10|Placebo - 5mg - 10mg|P-5-10|Placebo - 5mg - 10mg|[?]|UMI|2020-11-19|26|
e|DM|24801f05-79be-433d-8124-85580bc14c4f|24801f05-79be-433d-8124-85580bc14c4f|2020-08-31|2020-10-12|2020-08-31|2020-12-08|2020-08-31|2020-12-08|||Old Union|2020-11-22|30|YEARS|M|BLACK OR AFRICAN AMERICAN|NOT HISPANIC OR LATINO|P-5-10|Placebo - 5mg - 10mg|P-5-10|Placebo - 5mg - 10mg|[?]|UMI|2020-09-03|4|
e|DM|02df80f9-2337-4abd-9452-41cd83dec8ba|02df80f9-2337-4abd-9452-41cd83dec8ba|2020-07-26|2020-07-30|2020-07-26|2020-11-02|2020-07-26|2020-11-02|||Monterey Hills|2020-08-06|75|YEARS|M|ASIAN|NOT REPORTED|5-10-P|5mg - 10mg- Placebo|5-10-P|5mg - 10mg- Placebo|[?]|UMI|2020-08-27|33|
e|DM|d9eea93b-f9f9-466c-aa8a-a250baff18ef|d9eea93b-f9f9-466c-aa8a-a250baff18ef|2020-07-25|2020-08-28|2020-07-25|2020-11-01|2020-07-25|2020-11-01|||Upper Lawn|2020-10-17|18|YEARS|M|ASIAN|UNKNOWN|5-10-P|5mg - 10mg- Placebo|5-10-P|5mg - 10mg- Placebo|[?]|UMI|2020-10-14|82|
e|DM|35a59f6a-2712-4d1b-a954-f1418d4b9168|35a59f6a-2712-4d1b-a954-f1418d4b9168|2020-10-27|2020-12-30|2020-10-27|2021-02-03|2020-10-27|2021-02-03|||Porterville|2020-12-22|62|YEARS|M|WHITE|NOT HISPANIC OR LATINO|5-10-P|5mg - 10mg- Placebo|5-10-P|5mg - 10mg- Placebo|[?]|UMI|2020-10-28|2|
e|DM|ecfa7c81-fd68-4b8c-8305-65e1ecbff67f|ecfa7c81-fd68-4b8c-8305-65e1ecbff67f|2020-11-01|2021-01-23|2020-11-01|2021-02-08|2020-11-01|2021-02-08|||Prairie View (historical)|2020-12-27|13|YEARS|M|UNKNOWN|UNKNOWN|P-5-10|Placebo - 5mg - 10mg|P-5-10|Placebo - 5mg - 10mg|[?]|UMI|2020-11-11|11|
e|DM|7fa3d0ff-fd49-4114-bebe-1c27765f01b8|7fa3d0ff-fd49-4114-bebe-1c27765f01b8|2020-05-04|2020-07-05|2020-05-04|2020-08-11|2020-05-04|2020-08-11|||Youngsville|2020-06-19|45|YEARS|F|NOT REPORTED|NOT HISPANIC OR LATINO|P-5-10|Placebo - 5mg - 10mg|P-5-10|Placebo - 5mg - 10mg|[?]|UMI|2020-08-02|91|
e|DM|d041952e-4aa6-4b37-9cec-127adce2eabb|d041952e-4aa6-4b37-9cec-127adce2eabb|2020-09-30|2020-11-09|2020-09-30|2021-01-07|2020-09-30|2021-01-07|||Paineville|2020-10-07|57|YEARS|F|NATIVE HAWAIIAN OR OTHER PACIFIC ISLANDER|UNKNOWN|P-5-10|Placebo - 5mg - 10mg|P-5-10|Placebo - 5mg - 10mg|[?]|UMI|2020-10-13|14|
e|DM|7f0ceec0-eda9-40ea-b2e8-90ba6bf3d115|7f0ceec0-eda9-40ea-b2e8-90ba6bf3d115|2020-05-31|2020-08-03|2020-05-31|2020-09-07|2020-05-31|2020-09-07|||Rule|2020-06-12|24|YEARS|M|WHITE|NOT HISPANIC OR LATINO|5-10-P|5mg - 10mg- Placebo|5-10-P|5mg - 10mg- Placebo|[?]|UMI|2020-07-15|46|
e|DM|9fc393da-4665-4be5-a869-856c45ddcf13|9fc393da-4665-4be5-a869-856c45ddcf13|2020-06-09|2020-06-16|2020-06-09|2020-09-16|2020-06-09|2020-09-16|||Quakertown|2020-08-10|67|YEARS|M|NOT REPORTED|HISPANIC OR LATINO|P-5-10|Placebo - 5mg - 10mg|P-5-10|Placebo - 5mg - 10mg|[?]|UMI|2020-08-27|80|
e|DM|cddc1541-4de9-45e7-bb61-15a2d5baca6f|cddc1541-4de9-45e7-bb61-15a2d5baca6f|2021-01-10|2021-02-16|2021-01-10|2021-04-19|2021-01-10|2021-04-19|||Harper|2021-01-11|34|YEARS|M|BLACK OR AFRICAN AMERICAN|UNKNOWN|5-P-10|5mg - Placebo- 10mg|5-P-10|5mg - Placebo- 10mg|[?]|UMI|2021-02-03|25|
e|DM|303c6dbe-59f9-4016-baa1-8506c0c1ee09|303c6dbe-59f9-4016-baa1-8506c0c1ee09|2020-12-17|2021-01-21|2020-12-17|2021-03-26|2020-12-17|2021-03-26|||Chestnut Hills|2021-01-20|14|YEARS|F|NATIVE HAWAIIAN OR OTHER PACIFIC ISLANDER|UNKNOWN|5-P-10|5mg - Placebo- 10mg|5-P-10|5mg - Placebo- 10mg|[?]|UMI|2020-12-29|13|
e|DM|fee3c810-3d76-4db4-9272-6b4e8fd14088|fee3c810-3d76-4db4-9272-6b4e8fd14088|2020-12-06|2021-01-08|2020-12-06|2021-03-15|2020-12-06|2021-03-15|||Lakeville|2021-03-09|67|YEARS|M|BLACK OR AFRICAN AMERICAN|UNKNOWN|P-5-10|Placebo - 5mg - 10mg|P-5-10|Placebo - 5mg - 10mg|[?]|UMI|2021-01-14|40|
e|DM|d5125e6c-2ab6-4286-8ce0-0011f1e08fbb|d5125e6c-2ab6-4286-8ce0-0011f1e08fbb|2020-06-29|2020-07-25|2020-06-29|2020-10-06|2020-06-29|2020-10-06|||Laconia|2020-08-14|36|YEARS|F|AMERICAN INDIAN OR ALASKA NATIVE|NOT REPORTED|P-5-10|Placebo - 5mg - 10mg|P-5-10|Placebo - 5mg - 10mg|[?]|UMI|2020-10-03|97|
e|DM|2e6e4c1d-4976-4f32-bd2e-8db09440f7b3|2e6e4c1d-4976-4f32-bd2e-8db09440f7b3|2020-07-23|2020-07-24|2020-07-23|2020-10-30|2020-07-23|2020-10-30|||Tarrants|2020-08-24|48|YEARS|F|ASIAN|NOT REPORTED|5-P-10|5mg - Placebo- 10mg|5-P-10|5mg - Placebo- 10mg|[?]|UMI|2020-10-07|77|
e|DM|47fad45a-9a4c-47ee-a863-089d979523b5|47fad45a-9a4c-47ee-a863-089d979523b5|2020-09-28|2020-12-28|2020-09-28|2021-01-05|2020-09-28|2021-01-05|||Klahanne Mobile Home Park|2020-11-19|20|YEARS|F|ASIAN|HISPANIC OR LATINO|5-10-P|5mg - 10mg- Placebo|5-10-P|5mg - 10mg- Placebo|[?]|UMI|2020-11-14|48|
e|DM|317b8b6d-9638-44a3-816f-7f3fca1e01a3|317b8b6d-9638-44a3-816f-7f3fca1e01a3|2020-05-14|2020-07-07|2020-05-14|2020-08-21|2020-05-14|2020-08-21|||Fullenkamp Acres|2020-08-08|53|YEARS|F|WHITE|HISPANIC OR LATINO|5-10-P|5mg - 10mg- Placebo|5-10-P|5mg - 10mg- Placebo|[?]|UMI|2020-07-19|67|
e|DM|3bad8e12-9a92-4227-a3f6-b3eac8fa57ec|3bad8e12-9a92-4227-a3f6-b3eac8fa57ec|2020-07-01|2020-08-06|2020-07-01|2020-10-08|2020-07-01|2020-10-08|||Ninnekah|2020-07-28|40|YEARS|F|AMERICAN INDIAN OR ALASKA NATIVE|NOT HISPANIC OR LATINO|5-P-10|5mg - Placebo- 10mg|5-P-10|5mg - Placebo- 10mg|[?]|UMI|2020-09-13|75|
e|DM|e7cee930-54f6-482e-b782-01aed0f0db06|e7cee930-54f6-482e-b782-01aed0f0db06|2020-12-29|2021-03-17|2020-12-29|2021-04-07|2020-12-29|2021-04-07|||Alert|2021-03-20|80|YEARS|M|NOT REPORTED|NOT HISPANIC OR LATINO|P-5-10|Placebo - 5mg - 10mg|P-5-10|Placebo - 5mg - 10mg|[?]|UMI|2021-03-16|78|
e|DM|4f0e0353-bd4b-45ee-9e21-40489b5f8d2f|4f0e0353-bd4b-45ee-9e21-40489b5f8d2f|2021-01-12|2021-01-25|2021-01-12|2021-04-21|2021-01-12|2021-04-21|2021-04-21|Y|Davids Mill|2021-03-30|54|YEARS|M|AMERICAN INDIAN OR ALASKA NATIVE|NOT HISPANIC OR LATINO|P-5-10|Placebo - 5mg - 10mg|P-5-10|Placebo - 5mg - 10mg|[?]|UMI|2021-04-08|87|
e|DM|f754ae7d-0776-41c0-988c-8cf2879d85da|f754ae7d-0776-41c0-988c-8cf2879d85da|2020-09-08|2020-10-23|2020-09-08|2020-12-16|2020-09-08|2020-12-16|||Letitia|2020-11-06|28|YEARS|M|NATIVE HAWAIIAN OR OTHER PACIFIC ISLANDER|HISPANIC OR LATINO|P-5-10|Placebo - 5mg - 10mg|P-5-10|Placebo - 5mg - 10mg|[?]|UMI|2020-10-08|31|
e|DM|8a8d8c31-ae36-4a64-90da-ba5eb473e420|8a8d8c31-ae36-4a64-90da-ba5eb473e420|2020-06-16|2020-06-28|2020-06-16|2020-09-23|2020-06-16|2020-09-23|||Penny|2020-09-09|51|YEARS|F|AMERICAN INDIAN OR ALASKA NATIVE|HISPANIC OR LATINO|P-5-10|Placebo - 5mg - 10mg|P-5-10|Placebo - 5mg - 10mg|[?]|UMI|2020-08-23|69|
e|DM|482e40c9-2908-4269-b93c-61c311e9fde3|482e40c9-2908-4269-b93c-61c311e9fde3|2020-07-07|2020-08-05|2020-07-07|2020-10-14|2020-07-07|2020-10-14|||Stockholm|2020-07-11|40|YEARS|M|UNKNOWN|UNKNOWN|P-5-10|Placebo - 5mg - 10mg|P-5-10|Placebo - 5mg - 10mg|[?]|UMI|2020-07-26|20|
e|DM|f7cfb281-0556-4316-9373-65edf63c4b23|f7cfb281-0556-4316-9373-65edf63c4b23|2020-06-20|2020-09-15|2020-06-20|2020-09-27|2020-06-20|2020-09-27|||Greens Corner|2020-07-04|77|YEARS|M|WHITE|HISPANIC OR LATINO|P-5-10|Placebo - 5mg - 10mg|P-5-10|Placebo - 5mg - 10mg|[?]|UMI|2020-09-04|77|
e|DM|e0b03cb9-aa73-48c8-b05b-4a506ecf077b|e0b03cb9-aa73-48c8-b05b-4a506ecf077b|2021-01-01|2021-03-08|2021-01-01|2021-04-10|2021-01-01|2021-04-10|||Pattons Corners|2021-02-26|13|YEARS|M|NATIVE HAWAIIAN OR OTHER PACIFIC ISLANDER|NOT REPORTED|P-5-10|Placebo - 5mg - 10mg|P-5-10|Placebo - 5mg - 10mg|[?]|UMI|2021-03-31|90|
e|DM|9ed8a578-a82a-423a-81ca-ee87f98d62f7|9ed8a578-a82a-423a-81ca-ee87f98d62f7|2020-08-24|2020-11-01|2020-08-24|2020-12-01|2020-08-24|2020-12-01|||Stamford|2020-11-20|19|YEARS|M|UNKNOWN|NOT REPORTED|5-P-10|5mg - Placebo- 10mg|5-P-10|5mg - Placebo- 10mg|[?]|UMI|2020-10-01|39|
e|DM|2214af46-1072-4328-bf3d-f4fe9cd97d9b|2214af46-1072-4328-bf3d-f4fe9cd97d9b|2020-10-09|2020-11-21|2020-10-09|2021-01-16|2020-10-09|2021-01-16|||Dresden|2020-12-24|19|YEARS|F|AMERICAN INDIAN OR ALASKA NATIVE|NOT REPORTED|5-P-10|5mg - Placebo- 10mg|5-P-10|5mg - Placebo- 10mg|[?]|UMI|2020-12-28|81|
e|DM|7e56eb43-62a6-45ac-9476-1d0655595a04|7e56eb43-62a6-45ac-9476-1d0655595a04|2021-01-15|2021-02-25|2021-01-15|2021-04-24|2021-01-15|2021-04-24|||Claremont|2021-02-21|59|YEARS|M|AMERICAN INDIAN OR ALASKA NATIVE|NOT HISPANIC OR LATINO|P-5-10|Placebo - 5mg - 10mg|P-5-10|Placebo - 5mg - 10mg|[?]|UMI|2021-02-26|43|
e|DM|73a8e85a-0b5f-496b-b164-afc4d1f02de2|73a8e85a-0b5f-496b-b164-afc4d1f02de2|2020-06-20|2020-08-15|2020-06-20|2020-09-27|2020-06-20|2020-09-27|||Rochedale Village|2020-09-11|28|YEARS|M|WHITE|NOT HISPANIC OR LATINO|5-10-P|5mg - 10mg- Placebo|5-10-P|5mg - 10mg- Placebo|[?]|UMI|2020-08-27|69|
e|DM|84f74359-c79b-4f1c-8119-a4993b071973|84f74359-c79b-4f1c-8119-a4993b071973|2020-05-03|2020-07-07|2020-05-03|2020-08-10|2020-05-03|2020-08-10|||Armstrong|2020-07-10|58|YEARS|M|BLACK OR AFRICAN AMERICAN|UNKNOWN|5-P-10|5mg - Placebo- 10mg|5-P-10|5mg - Placebo- 10mg|[?]|UMI|2020-05-10|8|
e|DM|d6ff71b7-6a5f-415f-8267-15c9c1f5585c|d6ff71b7-6a5f-415f-8267-15c9c1f5585c|2020-10-28|2020-12-25|2020-10-28|2021-02-04|2020-10-28|2021-02-04|||Fischer|2021-01-13|24|YEARS|M|NATIVE HAWAIIAN OR OTHER PACIFIC ISLANDER|NOT HISPANIC OR LATINO|5-P-10|5mg - Placebo- 10mg|5-P-10|5mg - Placebo- 10mg|[?]|UMI|2020-12-17|51|
e|DM|cd0c969e-61c6-4c65-ac19-4ee247f5009a|cd0c969e-61c6-4c65-ac19-4ee247f5009a|2020-08-31|2020-11-25|2020-08-31|2020-12-08|2020-08-31|2020-12-08|||Huron (historical)|2020-10-30|61|YEARS|F|UNKNOWN|NOT HISPANIC OR LATINO|P-5-10|Placebo - 5mg - 10mg|P-5-10|Placebo - 5mg - 10mg|[?]|UMI|2020-10-05|36|
e|DM|1fff484d-0a68-42cd-8eff-bc4fe4da945c|1fff484d-0a68-42cd-8eff-bc4fe4da945c|2021-01-19|2021-02-03|2021-01-19|2021-04-28|2021-01-19|2021-04-28|||Trowbridge|2021-02-20|67|YEARS|M|NOT REPORTED|HISPANIC OR LATINO|5-10-P|5mg - 10mg- Placebo|5-10-P|5mg - 10mg- Placebo|[?]|UMI|2021-04-03|75|
e|DM|e2c20e9a-0ac5-4907-96de-472bee70bd79|e2c20e9a-0ac5-4907-96de-472bee70bd79|2020-11-25|2021-02-16|2020-11-25|2021-03-04|2020-11-25|2021-03-04|||Oak Park Trails|2020-12-11|64|YEARS|M|WHITE|HISPANIC OR LATINO|5-P-10|5mg - Placebo- 10mg|5-P-10|5mg - Placebo- 10mg|[?]|UMI|2021-01-10|47|
e|DM|6064ca8c-b723-4d05-914a-bb547d86fcc5|6064ca8c-b723-4d05-914a-bb547d86fcc5|2020-05-24|2020-08-03|2020-05-24|2020-08-31|2020-05-24|2020-08-31|||Springhill Lake|2020-07-04|80|YEARS|M|WHITE|HISPANIC OR LATINO|P-5-10|Placebo - 5mg - 10mg|P-5-10|Placebo - 5mg - 10mg|[?]|UMI|2020-06-07|15|
e|DM|8effbbff-acda-4718-89f1-e30a418f6bae|8effbbff-acda-4718-89f1-e30a418f6bae|2020-10-28|2021-01-23|2020-10-28|2021-02-04|2020-10-28|2021-02-04|||Cupertino|2020-12-26|47|YEARS|F|NOT REPORTED|NOT REPORTED|5-10-P|5mg - 10mg- Placebo|5-10-P|5mg - 10mg- Placebo|[?]|UMI|2021-01-16|81|
e|DM|859b16a5-f6a2-40cc-8e01-18c112b1969e|859b16a5-f6a2-40cc-8e01-18c112b1969e|2020-08-09|2020-09-18|2020-08-09|2020-11-16|2020-08-09|2020-11-16|||Fairview (historical)|2020-08-24|46|YEARS|F|AMERICAN INDIAN OR ALASKA NATIVE|UNKNOWN|5-10-P|5mg - 10mg- Placebo|5-10-P|5mg - 10mg- Placebo|[?]|UMI|2020-10-18|71|
e|DM|36b457ef-4cf6-4043-a836-49368ebf3f1c|36b457ef-4cf6-4043-a836-49368ebf3f1c|2020-08-07|2020-08-14|2020-08-07|2020-11-14|2020-08-07|2020-11-14|2020-11-14|Y|Kurras Mobile Village|2020-09-28|29|YEARS|F|AMERICAN INDIAN OR ALASKA NATIVE|HISPANIC OR LATINO|P-5-10|Placebo - 5mg - 10mg|P-5-10|Placebo - 5mg - 10mg|[?]|UMI|2020-10-20|75|
e|DM|31f33e38-bba6-4c8a-b563-14afaabae5d7|31f33e38-bba6-4c8a-b563-14afaabae5d7|2020-06-22|2020-07-01|2020-06-22|2020-09-29|2020-06-22|2020-09-29|||Amelia|2020-08-08|44|YEARS|F|NATIVE HAWAIIAN OR OTHER PACIFIC ISLANDER|UNKNOWN|P-5-10|Placebo - 5mg - 10mg|P-5-10|Placebo - 5mg - 10mg|[?]|UMI|2020-07-15|24|
e|DM|6794dffe-333b-425b-8883-26f6e5ba0797|6794dffe-333b-425b-8883-26f6e5ba0797|2020-06-30|2020-07-29|2020-06-30|2020-10-07|2020-06-30|2020-10-07|||Hickory Haven|2020-08-06|62|YEARS|M|BLACK OR AFRICAN AMERICAN|NOT REPORTED|5-P-10|5mg - Placebo- 10mg|5-P-10|5mg - Placebo- 10mg|[?]|UMI|2020-09-13|76|
e|DM|d7d9a12d-6bb1-44a2-a008-6a5bae013d40|d7d9a12d-6bb1-44a2-a008-6a5bae013d40|2020-05-29|2020-08-19|2020-05-29|2020-09-05|2020-05-29|2020-09-05|||Avalon|2020-06-04|62|YEARS|F|UNKNOWN|UNKNOWN|P-5-10|Placebo - 5mg - 10mg|P-5-10|Placebo - 5mg - 10mg|[?]|UMI|2020-08-24|88|
e|DM|45897452-8f5a-458d-9a43-13237460ba48|45897452-8f5a-458d-9a43-13237460ba48|2020-11-02|2020-12-21|2020-11-02|2021-02-09|2020-11-02|2021-02-09|||Mount Hermon Manor|2020-12-30|51|YEARS|M|NOT REPORTED|NOT REPORTED|5-P-10|5mg - Placebo- 10mg|5-P-10|5mg - Placebo- 10mg|[?]|UMI|2021-01-20|80|
e|DM|16eb981f-2118-4658-a83f-93d925c410c9|16eb981f-2118-4658-a83f-93d925c410c9|2020-12-07|2021-01-16|2020-12-07|2021-03-16|2020-12-07|2021-03-16|||Lakes Park Mobile Home Park|2021-02-15|39|YEARS|F|ASIAN|HISPANIC OR LATINO|5-P-10|5mg - Placebo- 10mg|5-P-10|5mg - Placebo- 10mg|[?]|UMI|2021-03-02|86|
e|DM|3f3ade8a-e27b-4f20-8b4d-69c7bae520c1|3f3ade8a-e27b-4f20-8b4d-69c7bae520c1|2021-01-02|2021-01-26|2021-01-02|2021-04-11|2021-01-02|2021-04-11|||Mount Holly|2021-01-25|78|YEARS|M|BLACK OR AFRICAN AMERICAN|NOT REPORTED|P-5-10|Placebo - 5mg - 10mg|P-5-10|Placebo - 5mg - 10mg|[?]|UMI|2021-04-03|92|
e|DM|d99a6a66-accf-4a8e-b696-b6d5b4ce249c|d99a6a66-accf-4a8e-b696-b6d5b4ce249c|2021-01-20|2021-03-18|2021-01-20|2021-04-29|2021-01-20|2021-04-29|||Osro|2021-04-14|14|YEARS|F|NOT REPORTED|NOT REPORTED|P-5-10|Placebo - 5mg - 10mg|P-5-10|Placebo - 5mg - 10mg|[?]|UMI|2021-04-01|72|
e|DM|874f491c-5d55-4738-86b7-b1200b16d106|874f491c-5d55-4738-86b7-b1200b16d106|2020-12-30|2021-02-20|2020-12-30|2021-04-08|2020-12-30|2021-04-08|||Bowlings Mobile Home Park|2021-04-01|59|YEARS|F|WHITE|UNKNOWN|5-P-10|5mg - Placebo- 10mg|5-P-10|5mg - Placebo- 10mg|[?]|UMI|2021-02-18|51|
e|DM|281ccdef-794c-49ad-9616-6f6f68dd4543|281ccdef-794c-49ad-9616-6f6f68dd4543|2020-05-26|2020-08-30|2020-05-26|2020-09-02|2020-05-26|2020-09-02|||La Paloma Number 1 Colonia|2020-08-01|64|YEARS|M|NATIVE HAWAIIAN OR OTHER PACIFIC ISLANDER|UNKNOWN|P-5-10|Placebo - 5mg - 10mg|P-5-10|Placebo - 5mg - 10mg|[?]|UMI|2020-06-08|14|
e|DM|b1179e10-e8fe-472c-a511-d6d460571857|b1179e10-e8fe-472c-a511-d6d460571857|2020-07-24|2020-08-01|2020-07-24|2020-10-31|2020-07-24|2020-10-31|||Clintondale|2020-08-14|51|YEARS|M|NOT REPORTED|HISPANIC OR LATINO|5-P-10|5mg - Placebo- 10mg|5-P-10|5mg - Placebo- 10mg|[?]|UMI|2020-08-30|38|
e|DM|6362cf42-f286-4151-bdf7-38fcc5639eed|6362cf42-f286-4151-bdf7-38fcc5639eed|2020-08-29|2020-09-17|2020-08-29|2020-12-06|2020-08-29|2020-12-06|||Sarton|2020-11-10|24|YEARS|M|UNKNOWN|NOT REPORTED|P-5-10|Placebo - 5mg - 10mg|P-5-10|Placebo - 5mg - 10mg|[?]|UMI|2020-08-30|2|
e|DM|8e28e3ab-0060-43f7-b033-c16bd77c0e29|8e28e3ab-0060-43f7-b033-c16bd77c0e29|2020-11-21|2020-12-19|2020-11-21|2021-02-28|2020-11-21|2021-02-28|||Misesopano (historical)|2021-01-22|76|YEARS|M|ASIAN|HISPANIC OR LATINO|5-10-P|5mg - 10mg- Placebo|5-10-P|5mg - 10mg- Placebo|[?]|UMI|2020-12-19|29|
e|DM|d0f0a002-b5cd-468a-98ff-e0eeaa5969e7|d0f0a002-b5cd-468a-98ff-e0eeaa5969e7|2020-06-18|2020-09-08|2020-06-18|2020-09-25|2020-06-18|2020-09-25|||McClures (historical)|2020-08-09|26|YEARS|M|UNKNOWN|NOT REPORTED|P-5-10|Placebo - 5mg - 10mg|P-5-10|Placebo - 5mg - 10mg|[?]|UMI|2020-06-30|13|
e|DM|0c1fcd0e-847b-4bf1-82c1-5d749742cc5b|0c1fcd0e-847b-4bf1-82c1-5d749742cc5b|2020-06-13|2020-06-27|2020-06-13|2020-09-20|2020-06-13|2020-09-20|||Nimrod|2020-08-22|27|YEARS|M|ASIAN|NOT REPORTED|5-P-10|5mg - Placebo- 10mg|5-P-10|5mg - Placebo- 10mg|[?]|UMI|2020-07-03|21|
e|DM|43880587-c397-402d-886b-9b666e3fe455|43880587-c397-402d-886b-9b666e3fe455|2020-07-12|2020-09-30|2020-07-12|2020-10-19|2020-07-12|2020-10-19|||Bingville|2020-07-16|34|YEARS|M|UNKNOWN|NOT REPORTED|5-P-10|5mg - Placebo- 10mg|5-P-10|5mg - Placebo- 10mg|[?]|UMI|2020-09-10|61|
e|DM|807f83d2-9364-4ee4-855d-304f3e252555|807f83d2-9364-4ee4-855d-304f3e252555|2020-05-05|2020-06-19|2020-05-05|2020-08-12|2020-05-05|2020-08-12|||Catfish Corners|2020-08-11|21|YEARS|M|UNKNOWN|HISPANIC OR LATINO|P-5-10|Placebo - 5mg - 10mg|P-5-10|Placebo - 5mg - 10mg|[?]|UMI|2020-08-03|91|
e|DM|45dd95cd-857f-4cbd-89d7-640a8ed74fd8|45dd95cd-857f-4cbd-89d7-640a8ed74fd8|2020-11-30|2021-02-07|2020-11-30|2021-03-09|2020-11-30|2021-03-09|||Venus|2021-02-27|14|YEARS|M|ASIAN|NOT HISPANIC OR LATINO|5-P-10|5mg - Placebo- 10mg|5-P-10|5mg - Placebo- 10mg|[?]|UMI|2020-12-24|25|
e|DM|81c33633-6ade-45fe-a78e-0e853d8aa9c2|81c33633-6ade-45fe-a78e-0e853d8aa9c2|2020-08-06|2020-09-04|2020-08-06|2020-11-13|2020-08-06|2020-11-13|||Cooksburg|2020-10-03|18|YEARS|F|WHITE|NOT REPORTED|5-P-10|5mg - Placebo- 10mg|5-P-10|5mg - Placebo- 10mg|[?]|UMI|2020-09-24|50|
e|DM|62f3a2a8-f181-4d95-a9b3-a94cd71594a3|62f3a2a8-f181-4d95-a9b3-a94cd71594a3|2020-07-23|2020-10-28|2020-07-23|2020-10-30|2020-07-23|2020-10-30|||Fullers|2020-10-10|28|YEARS|M|BLACK OR AFRICAN AMERICAN|NOT HISPANIC OR LATINO|5-P-10|5mg - Placebo- 10mg|5-P-10|5mg - Placebo- 10mg|[?]|UMI|2020-10-03|73|
e|DM|7d6e9afe-919e-481a-87d5-bbaf7ca2ec6c|7d6e9afe-919e-481a-87d5-bbaf7ca2ec6c|2020-08-23|2020-11-04|2020-08-23|2020-11-30|2020-08-23|2020-11-30|||Nolan|2020-09-05|44|YEARS|M|NATIVE HAWAIIAN OR OTHER PACIFIC ISLANDER|NOT HISPANIC OR LATINO|P-5-10|Placebo - 5mg - 10mg|P-5-10|Placebo - 5mg - 10mg|[?]|UMI|2020-10-02|41|
e|DM|84ccf2f8-8b9d-486c-8aad-a11bc45ed4f5|84ccf2f8-8b9d-486c-8aad-a11bc45ed4f5|2021-01-18|2021-02-13|2021-01-18|2021-04-27|2021-01-18|2021-04-27|||Stewart Corners|2021-02-21|22|YEARS|F|ASIAN|UNKNOWN|5-P-10|5mg - Placebo- 10mg|5-P-10|5mg - Placebo- 10mg|[?]|UMI|2021-02-28|42|
e|DM|21740641-69bb-49a9-a86d-2444914f6d12|21740641-69bb-49a9-a86d-2444914f6d12|2020-05-08|2020-05-30|2020-05-08|2020-08-15|2020-05-08|2020-08-15|||Alliance|2020-06-26|21|YEARS|M|WHITE|HISPANIC OR LATINO|P-5-10|Placebo - 5mg - 10mg|P-5-10|Placebo - 5mg - 10mg|[?]|UMI|2020-07-28|82|
e|DM|c3984f41-30a0-49a4-a8bd-f36fad4621a8|c3984f41-30a0-49a4-a8bd-f36fad4621a8|2020-06-09|2020-07-18|2020-06-09|2020-09-16|2020-06-09|2020-09-16|||Almadane|2020-08-24|31|YEARS|F|NATIVE HAWAIIAN OR OTHER PACIFIC ISLANDER|NOT HISPANIC OR LATINO|5-10-P|5mg - 10mg- Placebo|5-10-P|5mg - 10mg- Placebo|[?]|UMI|2020-08-26|79|
e|DM|1ae9a175-fd7a-4215-adc4-ce6bd220f94d|1ae9a175-fd7a-4215-adc4-ce6bd220f94d|2021-01-12|2021-03-17|2021-01-12|2021-04-21|2021-01-12|2021-04-21|||Ralph|2021-04-05|53|YEARS|F|AMERICAN INDIAN OR ALASKA NATIVE|NOT REPORTED|5-P-10|5mg - Placebo- 10mg|5-P-10|5mg - Placebo- 10mg|[?]|UMI|2021-02-01|21|
e|DM|0f85b859-187d-4c6b-8873-33c0f18d3e3c|0f85b859-187d-4c6b-8873-33c0f18d3e3c|2020-07-15|2020-10-02|2020-07-15|2020-10-22|2020-07-15|2020-10-22|||Farmland|2020-08-30|76|YEARS|M|WHITE|NOT HISPANIC OR LATINO|5-P-10|5mg - Placebo- 10mg|5-P-10|5mg - Placebo- 10mg|[?]|UMI|2020-10-11|89|
e|DM|5e383a9d-dc97-4352-8add-d55a1a566b9f|5e383a9d-dc97-4352-8add-d55a1a566b9f|2020-09-18|2020-12-08|2020-09-18|2020-12-26|2020-09-18|2020-12-26|||Vernon Heights Mobile Home Park|2020-10-14|56|YEARS|M|UNKNOWN|NOT REPORTED|P-5-10|Placebo - 5mg - 10mg|P-5-10|Placebo - 5mg - 10mg|[?]|UMI|2020-09-29|12|
e|DM|3eda746b-fb97-4950-a528-1d4ae5d3653a|3eda746b-fb97-4950-a528-1d4ae5d3653a|2020-06-04|2020-08-08|2020-06-04|2020-09-11|2020-06-04|2020-09-11|||Hacienda Canabal (historical)|2020-07-21|49|YEARS|M|BLACK OR AFRICAN AMERICAN|NOT REPORTED|P-5-10|Placebo - 5mg - 10mg|P-5-10|Placebo - 5mg - 10mg|[?]|UMI|2020-08-19|77|
e|DM|a3b72841-3401-4dcc-9d06-75438b408d0b|a3b72841-3401-4dcc-9d06-75438b408d0b|2020-10-27|2021-01-27|2020-10-27|2021-02-03|2020-10-27|2021-02-03|||Howland|2020-12-25|14|YEARS|M|NATIVE HAWAIIAN OR OTHER PACIFIC ISLANDER|NOT REPORTED|5-P-10|5mg - Placebo- 10mg|5-P-10|5mg - Placebo- 10mg|[?]|UMI|2021-01-29|95|
e|DM|4393406e-bda5-42e4-a752-a8121004b7ef|4393406e-bda5-42e4-a752-a8121004b7ef|2020-10-19|2020-11-30|2020-10-19|2021-01-26|2020-10-19|2021-01-26|||Terrace Mobile Home Park|2020-10-21|37|YEARS|M|AMERICAN INDIAN OR ALASKA NATIVE|UNKNOWN|P-5-10|Placebo - 5mg - 10mg|P-5-10|Placebo - 5mg - 10mg|[?]|UMI|2021-01-15|89|
e|DM|d70f5903-3d94-422b-8f69-212f015b54c9|d70f5903-3d94-422b-8f69-212f015b54c9|2020-05-10|2020-07-10|2020-05-10|2020-08-17|2020-05-10|2020-08-17|2020-08-17|Y|Skycrest Village|2020-06-15|41|YEARS|M|NATIVE HAWAIIAN OR OTHER PACIFIC ISLANDER|HISPANIC OR LATINO|5-P-10|5mg - Placebo- 10mg|5-P-10|5mg - Placebo- 10mg|[?]|UMI|2020-05-30|21|
e|DM|ef772266-faf1-4904-8ac3-19cbc3ea7d36|ef772266-faf1-4904-8ac3-19cbc3ea7d36|2020-12-28|2021-03-27|2020-12-28|2021-04-06|2020-12-28|2021-04-06|||Rustic Hills Mobile Home Park|2021-02-28|69|YEARS|F|WHITE|HISPANIC OR LATINO|P-5-10|Placebo - 5mg - 10mg|P-5-10|Placebo - 5mg - 10mg|[?]|UMI|2021-01-24|28|
e|DM|c0f9c36c-1ae5-4f80-b936-0afe3f661746|c0f9c36c-1ae5-4f80-b936-0afe3f661746|2020-07-05|2020-08-04|2020-07-05|2020-10-12|2020-07-05|2020-10-12|||Monica|2020-07-15|22|YEARS|F|WHITE|NOT HISPANIC OR LATINO|P-5-10|Placebo - 5mg - 10mg|P-5-10|Placebo - 5mg - 10mg|[?]|UMI|2020-09-11|69|
e|DM|f17b5630-e782-4135-8a50-4a9bb2fe63b1|f17b5630-e782-4135-8a50-4a9bb2fe63b1|2020-11-20|2020-12-01|2020-11-20|2021-02-27|2020-11-20|2021-02-27|||Bryan|2020-12-13|62|YEARS|F|UNKNOWN|NOT HISPANIC OR LATINO|5-10-P|5mg - 10mg- Placebo|5-10-P|5mg - 10mg- Placebo|[?]|UMI|2020-11-24|5|
e|DM|8bdb40c9-1e44-45ae-bf08-81ea635fd762|8bdb40c9-1e44-45ae-bf08-81ea635fd762|2020-12-24|2021-03-18|2020-12-24|2021-04-02|2020-12-24|2021-04-02|||Groveland Dell|2021-01-12|52|YEARS|M|AMERICAN INDIAN OR ALASKA NATIVE|HISPANIC OR LATINO|5-P-10|5mg - Placebo- 10mg|5-P-10|5mg - Placebo- 10mg|[?]|UMI|2021-03-24|91|
e|DM|c010dfcb-c1bb-4b4f-b58c-f4986ee86384|c010dfcb-c1bb-4b4f-b58c-f4986ee86384|2021-01-07|2021-02-08|2021-01-07|2021-04-16|2021-01-07|2021-04-16|||Winnsboro Mills|2021-01-27|26|YEARS|M|BLACK OR AFRICAN AMERICAN|NOT HISPANIC OR LATINO|5-10-P|5mg - 10mg- Placebo|5-10-P|5mg - 10mg- Placebo|[?]|UMI|2021-01-28|22|
e|DM|296f8314-5a07-47b5-8796-31afe709b379|296f8314-5a07-47b5-8796-31afe709b379|2020-06-29|2020-07-09|2020-06-29|2020-10-06|2020-06-29|2020-10-06|||Theo|2020-08-18|71|YEARS|F|ASIAN|NOT REPORTED|5-P-10|5mg - Placebo- 10mg|5-P-10|5mg - Placebo- 10mg|[?]|UMI|2020-07-22|24|
e|DM|ae1e4047-f4d7-47fa-a5f6-974f9a9c2a48|ae1e4047-f4d7-47fa-a5f6-974f9a9c2a48|2020-12-04|2021-03-04|2020-12-04|2021-03-13|2020-12-04|2021-03-13|||Casitas|2020-12-19|65|YEARS|M|ASIAN|UNKNOWN|5-10-P|5mg - 10mg- Placebo|5-10-P|5mg - 10mg- Placebo|[?]|UMI|2021-01-05|33|
e|DM|b06043ae-8251-4df8-ab6d-0ceb269c1a42|b06043ae-8251-4df8-ab6d-0ceb269c1a42|2021-01-16|2021-04-22|2021-01-16|2021-04-25|2021-01-16|2021-04-25|||Weed Mines|2021-03-07|74|YEARS|F|ASIAN|NOT HISPANIC OR LATINO|5-10-P|5mg - 10mg- Placebo|5-10-P|5mg - 10mg- Placebo|[?]|UMI|2021-02-04|20|
e|DM|d4fb5b9e-e244-4818-be3d-dbb57faacd43|d4fb5b9e-e244-4818-be3d-dbb57faacd43|2020-10-29|2020-12-16|2020-10-29|2021-02-05|2020-10-29|2021-02-05|||Porter|2021-01-25|45|YEARS|F|NOT REPORTED|HISPANIC OR LATINO|P-5-10|Placebo - 5mg - 10mg|P-5-10|Placebo - 5mg - 10mg|[?]|UMI|2021-01-20|84|
e|DM|7e6cbcf1-7175-4b46-b82f-32189cfcf6bb|7e6cbcf1-7175-4b46-b82f-32189cfcf6bb|2020-07-04|2020-09-06|2020-07-04|2020-10-11|2020-07-04|2020-10-11|||Branaman|2020-07-14|42|YEARS|M|UNKNOWN|UNKNOWN|5-10-P|5mg - 10mg- Placebo|5-10-P|5mg - 10mg- Placebo|[?]|UMI|2020-08-26|54|
e|DM|26e6a3e9-7e84-4c99-b1b9-0608b6d73512|26e6a3e9-7e84-4c99-b1b9-0608b6d73512|2021-01-05|2021-01-14|2021-01-05|2021-04-14|2021-01-05|2021-04-14|||Lemen Landing|2021-03-10|64|YEARS|M|WHITE|NOT REPORTED|P-5-10|Placebo - 5mg - 10mg|P-5-10|Placebo - 5mg - 10mg|[?]|UMI|2021-03-14|69|
e|DM|b1215705-4c22-43bd-aa65-58bd8745f081|b1215705-4c22-43bd-aa65-58bd8745f081|2020-07-06|2020-10-01|2020-07-06|2020-10-13|2020-07-06|2020-10-13|||Unionville|2020-07-30|60|YEARS|F|UNKNOWN|UNKNOWN|P-5-10|Placebo - 5mg - 10mg|P-5-10|Placebo - 5mg - 10mg|[?]|UMI|2020-09-06|63|
e|DM|b99c6528-af4e-42f5-8d2d-18943b57d55a|b99c6528-af4e-42f5-8d2d-18943b57d55a|2020-10-16|2020-11-05|2020-10-16|2021-01-23|2020-10-16|2021-01-23|||Taylortown|2020-11-19|63|YEARS|F|ASIAN|UNKNOWN|P-5-10|Placebo - 5mg - 10mg|P-5-10|Placebo - 5mg - 10mg|[?]|UMI|2020-12-25|71|
e|DM|6848e438-51ca-4a7d-8f81-26c375969a64|6848e438-51ca-4a7d-8f81-26c375969a64|2020-11-03|2020-12-14|2020-11-03|2021-02-10|2020-11-03|2021-02-10|||DeCamp|2020-12-24|66|YEARS|M|WHITE|NOT HISPANIC OR LATINO|5-P-10|5mg - Placebo- 10mg|5-P-10|5mg - Placebo- 10mg|[?]|UMI|2021-01-28|87|
e|DM|a6e11c33-7905-42d2-bda9-671d756d4c51|a6e11c33-7905-42d2-bda9-671d756d4c51|2020-07-28|2020-10-28|2020-07-28|2020-11-04|2020-07-28|2020-11-04|2020-11-04|Y|Bunker Hill|2020-08-19|22|YEARS|F|WHITE|HISPANIC OR LATINO|5-P-10|5mg - Placebo- 10mg|5-P-10|5mg - Placebo- 10mg|[?]|UMI|2020-08-12|16|
e|DM|441d3bc1-c95e-4e52-bd1b-7713f3a2cd8c|441d3bc1-c95e-4e52-bd1b-7713f3a2cd8c|2020-11-03|2020-11-13|2020-11-03|2021-02-10|2020-11-03|2021-02-10|||Smithville|2021-01-13|30|YEARS|M|BLACK OR AFRICAN AMERICAN|NOT REPORTED|P-5-10|Placebo - 5mg - 10mg|P-5-10|Placebo - 5mg - 10mg|[?]|UMI|2020-12-23|51|
e|DM|8ef37b54-b463-43a4-879f-3ad653c4fef4|8ef37b54-b463-43a4-879f-3ad653c4fef4|2020-09-02|2020-11-12|2020-09-02|2020-12-10|2020-09-02|2020-12-10|||Chapin Avenue|2020-09-07|73|YEARS|M|NATIVE HAWAIIAN OR OTHER PACIFIC ISLANDER|HISPANIC OR LATINO|5-P-10|5mg - Placebo- 10mg|5-P-10|5mg - Placebo- 10mg|[?]|UMI|2020-09-15|14|
e|DM|cf10035c-4d44-4512-810b-c267d1c8821b|cf10035c-4d44-4512-810b-c267d1c8821b|2020-05-18|2020-07-02|2020-05-18|2020-08-25|2020-05-18|2020-08-25|||Carnigan|2020-05-22|79|YEARS|M|AMERICAN INDIAN OR ALASKA NATIVE|HISPANIC OR LATINO|5-P-10|5mg - Placebo- 10mg|5-P-10|5mg - Placebo- 10mg|[?]|UMI|2020-07-19|63|
e|DM|f24e5ff9-ebe2-4dfe-88ed-1705eb410c9b|f24e5ff9-ebe2-4dfe-88ed-1705eb410c9b|2020-07-23|2020-09-26|2020-07-23|2020-10-30|2020-07-23|2020-10-30|||Providence (historical)|2020-09-08|15|YEARS|F|NOT REPORTED|HISPANIC OR LATINO|5-10-P|5mg - 10mg- Placebo|5-10-P|5mg - 10mg- Placebo|[?]|UMI|2020-07-31|9|
e|DM|a1e0035a-3328-4966-8664-82e53a44eb59|a1e0035a-3328-4966-8664-82e53a44eb59|2020-08-01|2020-08-17|2020-08-01|2020-11-08|2020-08-01|2020-11-08|||Apple Valley Mobile Park|2020-09-19|37|YEARS|F|NOT REPORTED|UNKNOWN|5-10-P|5mg - 10mg- Placebo|5-10-P|5mg - 10mg- Placebo|[?]|UMI|2020-10-05|66|
e|DM|771377fd-724f-4056-b2ea-84e1adab1f47|771377fd-724f-4056-b2ea-84e1adab1f47|2020-10-30|2020-11-30|2020-10-30|2021-02-06|2020-10-30|2021-02-06|||Otero|2021-02-04|63|YEARS|M|NATIVE HAWAIIAN OR OTHER PACIFIC ISLANDER|NOT REPORTED|P-5-10|Placebo - 5mg - 10mg|P-5-10|Placebo - 5mg - 10mg|[?]|UMI|2020-11-15|17|
e|DM|8e3ae12f-e4d8-4bcd-b444-979496e0cfe1|8e3ae12f-e4d8-4bcd-b444-979496e0cfe1|2020-08-14|2020-11-05|2020-08-14|2020-11-21|2020-08-14|2020-11-21|||Lake Geneva Mobile Home Park|2020-09-26|73|YEARS|F|BLACK OR AFRICAN AMERICAN|HISPANIC OR LATINO|5-10-P|5mg - 10mg- Placebo|5-10-P|5mg - 10mg- Placebo|[?]|UMI|2020-09-10|28|
e|DM|3aea0861-8f67-4717-93ce-c1e322f151d9|3aea0861-8f67-4717-93ce-c1e322f151d9|2020-08-05|2020-08-06|2020-08-05|2020-11-12|2020-08-05|2020-11-12|||Laurel Ridge|2020-08-11|22|YEARS|F|UNKNOWN|NOT HISPANIC OR LATINO|P-5-10|Placebo - 5mg - 10mg|P-5-10|Placebo - 5mg - 10mg|[?]|UMI|2020-11-10|98|
e|DM|4fbe2ae7-4b86-4706-845c-d1f22f1a822f|4fbe2ae7-4b86-4706-845c-d1f22f1a822f|2020-09-26|2020-11-27|2020-09-26|2021-01-03|2020-09-26|2021-01-03|||Webster|2020-10-19|17|YEARS|M|WHITE|HISPANIC OR LATINO|5-10-P|5mg - 10mg- Placebo|5-10-P|5mg - 10mg- Placebo|[?]|UMI|2020-10-15|20|
e|DM|ec63ad33-0411-4d12-af68-e2cda3a3f1ac|ec63ad33-0411-4d12-af68-e2cda3a3f1ac|2020-12-21|2021-01-22|2020-12-21|2021-03-30|2020-12-21|2021-03-30|||Harvard Park|2020-12-22|25|YEARS|M|NOT REPORTED|UNKNOWN|5-10-P|5mg - 10mg- Placebo|5-10-P|5mg - 10mg- Placebo|[?]|UMI|2021-01-25|36|
e|DM|39f51bd8-5edc-4434-92d4-7d8b683a6c32|39f51bd8-5edc-4434-92d4-7d8b683a6c32|2020-09-10|2020-10-18|2020-09-10|2020-12-18|2020-09-10|2020-12-18|||Turners Corner|2020-09-29|70|YEARS|M|UNKNOWN|NOT HISPANIC OR LATINO|5-10-P|5mg - 10mg- Placebo|5-10-P|5mg - 10mg- Placebo|[?]|UMI|2020-11-04|56|
e|DM|80565a22-8cec-46a2-abd7-91daf0767035|80565a22-8cec-46a2-abd7-91daf0767035|2021-01-19|2021-02-13|2021-01-19|2021-04-28|2021-01-19|2021-04-28|||Spanish Oaks Trail Mobile Home Park|2021-03-21|31|YEARS|M|ASIAN|UNKNOWN|5-10-P|5mg - 10mg- Placebo|5-10-P|5mg - 10mg- Placebo|[?]|UMI|2021-01-26|8|
e|DM|585a254e-c36b-44cf-b8a9-335fb98e0fd2|585a254e-c36b-44cf-b8a9-335fb98e0fd2|2020-10-10|2021-01-05|2020-10-10|2021-01-17|2020-10-10|2021-01-17|||Huntley Place|2020-10-16|49|YEARS|M|UNKNOWN|NOT REPORTED|P-5-10|Placebo - 5mg - 10mg|P-5-10|Placebo - 5mg - 10mg|[?]|UMI|2021-01-16|99|
e|DM|9ee3632d-4e99-4a46-b0b9-237467d97ca0|9ee3632d-4e99-4a46-b0b9-237467d97ca0|2020-08-31|2020-09-25|2020-08-31|2020-12-08|2020-08-31|2020-12-08|||Deans|2020-11-02|12|YEARS|M|AMERICAN INDIAN OR ALASKA NATIVE|NOT REPORTED|5-P-10|5mg - Placebo- 10mg|5-P-10|5mg - Placebo- 10mg|[?]|UMI|2020-10-15|46|
e|DM|be576e43-f39f-4e7b-9df3-e3a3e1f52d7d|be576e43-f39f-4e7b-9df3-e3a3e1f52d7d|2020-06-07|2020-08-21|2020-06-07|2020-09-14|2020-06-07|2020-09-14|||New Squantum|2020-08-29|34|YEARS|M|ASIAN|HISPANIC OR LATINO|5-10-P|5mg - 10mg- Placebo|5-10-P|5mg - 10mg- Placebo|[?]|UMI|2020-09-01|87|
e|DM|34b2090b-13ac-4fb2-8d87-eca2839a62f2|34b2090b-13ac-4fb2-8d87-eca2839a62f2|2020-05-29|2020-06-19|2020-05-29|2020-09-05|2020-05-29|2020-09-05|||Winslow|2020-07-22|68|YEARS|F|WHITE|HISPANIC OR LATINO|P-5-10|Placebo - 5mg - 10mg|P-5-10|Placebo - 5mg - 10mg|[?]|UMI|2020-07-27|60|
e|DM|bfc19b4b-51bb-4056-9195-8bd2db53a497|bfc19b4b-51bb-4056-9195-8bd2db53a497|2020-07-17|2020-08-02|2020-07-17|2020-10-24|2020-07-17|2020-10-24|||Smiths|2020-10-14|34|YEARS|F|NOT REPORTED|NOT REPORTED|5-10-P|5mg - 10mg- Placebo|5-10-P|5mg - 10mg- Placebo|[?]|UMI|2020-10-12|88|
e|DM|8620aadd-f97d-4bc1-9466-7e5a96ccc66f|8620aadd-f97d-4bc1-9466-7e5a96ccc66f|2020-09-12|2020-12-08|2020-09-12|2020-12-20|2020-09-12|2020-12-20|||Duval|2020-10-29|44|YEARS|M|NOT REPORTED|UNKNOWN|P-5-10|Placebo - 5mg - 10mg|P-5-10|Placebo - 5mg - 10mg|[?]|UMI|2020-09-17|6|
e|DM|64a70103-14bf-42f4-808b-fbdecec8bd4f|64a70103-14bf-42f4-808b-fbdecec8bd4f|2020-08-31|2020-10-29|2020-08-31|2020-12-08|2020-08-31|2020-12-08|||Coleman Place|2020-09-16|34|YEARS|F|UNKNOWN|NOT REPORTED|P-5-10|Placebo - 5mg - 10mg|P-5-10|Placebo - 5mg - 10mg|[?]|UMI|2020-09-21|22|
e|DM|00f3949b-b14a-47c5-942c-2ab71e03e40f|00f3949b-b14a-47c5-942c-2ab71e03e40f|2021-01-10|2021-02-27|2021-01-10|2021-04-19|2021-01-10|2021-04-19|||Bastonville|2021-02-04|57|YEARS|F|UNKNOWN|NOT REPORTED|5-P-10|5mg - Placebo- 10mg|5-P-10|5mg - Placebo- 10mg|[?]|UMI|2021-01-18|9|
e|DM|bf3676e3-b1aa-48cc-b5ae-ac6427d2b7d6|bf3676e3-b1aa-48cc-b5ae-ac6427d2b7d6|2020-12-18|2021-02-24|2020-12-18|2021-03-27|2020-12-18|2021-03-27|||Buena Vista|2021-01-16|47|YEARS|F|NOT REPORTED|NOT REPORTED|5-P-10|5mg - Placebo- 10mg|5-P-10|5mg - Placebo- 10mg|[?]|UMI|2021-03-19|92|
e|DM|c0d878ab-28d2-4c98-b1a9-26cd3fd3fd1e|c0d878ab-28d2-4c98-b1a9-26cd3fd3fd1e|2020-07-10|2020-08-27|2020-07-10|2020-10-17|2020-07-10|2020-10-17|||Harmony (historical)|2020-08-12|70|YEARS|M|ASIAN|HISPANIC OR LATINO|5-10-P|5mg - 10mg- Placebo|5-10-P|5mg - 10mg- Placebo|[?]|UMI|2020-09-13|66|
e|DM|44ca1fe6-76d2-4a94-9854-1ddbde638803|44ca1fe6-76d2-4a94-9854-1ddbde638803|2020-07-10|2020-08-19|2020-07-10|2020-10-17|2020-07-10|2020-10-17|||Barrett Lake Mobile Home Park|2020-09-15|69|YEARS|M|BLACK OR AFRICAN AMERICAN|NOT REPORTED|P-5-10|Placebo - 5mg - 10mg|P-5-10|Placebo - 5mg - 10mg|[?]|UMI|2020-08-31|53|
e|DM|edc935ed-3b94-43fa-9b7f-facf6eb6780e|edc935ed-3b94-43fa-9b7f-facf6eb6780e|2020-11-25|2020-12-16|2020-11-25|2021-03-04|2020-11-25|2021-03-04|||Bedford|2021-01-05|40|YEARS|F|ASIAN|NOT REPORTED|5-P-10|5mg - Placebo- 10mg|5-P-10|5mg - Placebo- 10mg|[?]|UMI|2021-02-08|76|
e|DM|f997ad2a-e9b1-4341-96d5-caef4bcb7196|f997ad2a-e9b1-4341-96d5-caef4bcb7196|2020-05-30|2020-07-21|2020-05-30|2020-09-06|2020-05-30|2020-09-06|||East Monkton|2020-06-23|72|YEARS|F|UNKNOWN|NOT HISPANIC OR LATINO|5-P-10|5mg - Placebo- 10mg|5-P-10|5mg - Placebo- 10mg|[?]|UMI|2020-09-01|95|
e|DM|5a56874f-10e4-4cd0-842f-19552a04d1bd|5a56874f-10e4-4cd0-842f-19552a04d1bd|2020-06-11|2020-08-07|2020-06-11|2020-09-18|2020-06-11|2020-09-18|||Naranjito Zona Urbana|2020-08-24|28|YEARS|M|AMERICAN INDIAN OR ALASKA NATIVE|HISPANIC OR LATINO|5-10-P|5mg - 10mg- Placebo|5-10-P|5mg - 10mg- Placebo|[?]|UMI|2020-08-25|76|
e|DM|f1d4ebe5-fc72-447b-8872-67e971ff471b|f1d4ebe5-fc72-447b-8872-67e971ff471b|2020-10-30|2021-02-05|2020-10-30|2021-02-06|2020-10-30|2021-02-06|||Preston|2020-12-15|27|YEARS|F|WHITE|HISPANIC OR LATINO|5-10-P|5mg - 10mg- Placebo|5-10-P|5mg - 10mg- Placebo|[?]|UMI|2021-01-08|71|
e|DM|2a141b73-e336-4701-9067-8d51d532596b|2a141b73-e336-4701-9067-8d51d532596b|2020-06-03|2020-08-04|2020-06-03|2020-09-10|2020-06-03|2020-09-10|||Meadowlea Estates Mobile Home Park|2020-08-14|64|YEARS|F|NOT REPORTED|UNKNOWN|P-5-10|Placebo - 5mg - 10mg|P-5-10|Placebo - 5mg - 10mg|[?]|UMI|2020-08-21|80|
e|DM|4adf9a2c-3c43-4289-8156-1a109791580c|4adf9a2c-3c43-4289-8156-1a109791580c|2020-11-13|2021-01-15|2020-11-13|2021-02-20|2020-11-13|2021-02-20|||Darby|2020-11-15|74|YEARS|F|NATIVE HAWAIIAN OR OTHER PACIFIC ISLANDER|UNKNOWN|P-5-10|Placebo - 5mg - 10mg|P-5-10|Placebo - 5mg - 10mg|[?]|UMI|2020-12-24|42|
e|DM|1781d0c2-60c1-49df-98ed-e7dbc63e5b40|1781d0c2-60c1-49df-98ed-e7dbc63e5b40|2020-05-14|2020-05-23|2020-05-14|2020-08-21|2020-05-14|2020-08-21|||Gayton (historical)|2020-07-21|56|YEARS|M|AMERICAN INDIAN OR ALASKA NATIVE|UNKNOWN|5-P-10|5mg - Placebo- 10mg|5-P-10|5mg - Placebo- 10mg|[?]|UMI|2020-07-27|75|
e|DM|1b2eda86-2d2c-4fdc-a88e-409ea5180603|1b2eda86-2d2c-4fdc-a88e-409ea5180603|2020-05-10|2020-08-15|2020-05-10|2020-08-17|2020-05-10|2020-08-17|||Possession|2020-07-08|14|YEARS|M|WHITE|UNKNOWN|P-5-10|Placebo - 5mg - 10mg|P-5-10|Placebo - 5mg - 10mg|[?]|UMI|2020-07-28|80|
e|DM|fc02184a-dfba-4964-be3a-cfa5f5d7200e|fc02184a-dfba-4964-be3a-cfa5f5d7200e|2020-05-17|2020-07-08|2020-05-17|2020-08-24|2020-05-17|2020-08-24|||Brandon Lake Park|2020-05-20|23|YEARS|F|NATIVE HAWAIIAN OR OTHER PACIFIC ISLANDER|NOT REPORTED|5-P-10|5mg - Placebo- 10mg|5-P-10|5mg - Placebo- 10mg|[?]|UMI|2020-06-02|17|
e|DM|37c59cfa-b952-4d16-a675-5e3b3a2e0288|37c59cfa-b952-4d16-a675-5e3b3a2e0288|2020-05-20|2020-08-02|2020-05-20|2020-08-27|2020-05-20|2020-08-27|||Osborne Corner|2020-08-20|63|YEARS|F|WHITE|NOT REPORTED|5-10-P|5mg - 10mg- Placebo|5-10-P|5mg - 10mg- Placebo|[?]|UMI|2020-07-18|60|
e|DM|11130b2c-e9fd-4a50-87ee-5dfa19199eba|11130b2c-e9fd-4a50-87ee-5dfa19199eba|2020-11-24|2021-01-10|2020-11-24|2021-03-03|2020-11-24|2021-03-03|2021-03-03|Y|Ngariy|2020-12-14|42|YEARS|F|BLACK OR AFRICAN AMERICAN|NOT REPORTED|5-P-10|5mg - Placebo- 10mg|5-P-10|5mg - Placebo- 10mg|[?]|UMI|2021-02-23|92|
e|DM|08e4310f-f868-4858-a321-f33a21a771e8|08e4310f-f868-4858-a321-f33a21a771e8|2020-05-06|2020-07-15|2020-05-06|2020-08-13|2020-05-06|2020-08-13|||Mats Mats|2020-08-02|69|YEARS|M|NATIVE HAWAIIAN OR OTHER PACIFIC ISLANDER|NOT HISPANIC OR LATINO|5-10-P|5mg - 10mg- Placebo|5-10-P|5mg - 10mg- Placebo|[?]|UMI|2020-05-24|19|
e|DM|29edf133-8b5b-46d5-bf7a-f75af4658417|29edf133-8b5b-46d5-bf7a-f75af4658417|2020-08-13|2020-09-23|2020-08-13|2020-11-20|2020-08-13|2020-11-20|||Colonial Acres|2020-09-15|60|YEARS|F|NOT REPORTED|HISPANIC OR LATINO|P-5-10|Placebo - 5mg - 10mg|P-5-10|Placebo - 5mg - 10mg|[?]|UMI|2020-11-02|82|
e|DM|49756233-e18f-4187-8d48-3b6b4fa7e5c2|49756233-e18f-4187-8d48-3b6b4fa7e5c2|2020-07-31|2020-10-28|2020-07-31|2020-11-07|2020-07-31|2020-11-07|||Brownsburg|2020-10-19|72|YEARS|F|AMERICAN INDIAN OR ALASKA NATIVE|HISPANIC OR LATINO|P-5-10|Placebo - 5mg - 10mg|P-5-10|Placebo - 5mg - 10mg|[?]|UMI|2020-09-17|49|
e|DM|7a046104-7215-4708-9d85-66683ceb8fe8|7a046104-7215-4708-9d85-66683ceb8fe8|2020-10-07|2020-12-28|2020-10-07|2021-01-14|2020-10-07|2021-01-14|||Cobham Park|2020-10-10|56|YEARS|M|ASIAN|NOT REPORTED|5-10-P|5mg - 10mg- Placebo|5-10-P|5mg - 10mg- Placebo|[?]|UMI|2020-12-19|74|
e|DM|6a22373a-8b46-4b5a-94b2-fee3bcd59dda|6a22373a-8b46-4b5a-94b2-fee3bcd59dda|2021-01-17|2021-03-17|2021-01-17|2021-04-26|2021-01-17|2021-04-26|||Tin Mountain|2021-02-17|14|YEARS|F|UNKNOWN|UNKNOWN|P-5-10|Placebo - 5mg - 10mg|P-5-10|Placebo - 5mg - 10mg|[?]|UMI|2021-03-27|70|
e|DM|bcbe7d50-2ebe-483a-9d71-dce4094f864e|bcbe7d50-2ebe-483a-9d71-dce4094f864e|2020-05-16|2020-07-19|2020-05-16|2020-08-23|2020-05-16|2020-08-23|||Williams Estates|2020-07-30|47|YEARS|F|WHITE|HISPANIC OR LATINO|P-5-10|Placebo - 5mg - 10mg|P-5-10|Placebo - 5mg - 10mg|[?]|UMI|2020-05-28|13|
e|DM|2550ba24-7bcf-41e2-9eae-536e13d4b345|2550ba24-7bcf-41e2-9eae-536e13d4b345|2021-01-11|2021-04-18|2021-01-11|2021-04-20|2021-01-11|2021-04-20|||Hobson|2021-03-28|73|YEARS|M|ASIAN|HISPANIC OR LATINO|5-10-P|5mg - 10mg- Placebo|5-10-P|5mg - 10mg- Placebo|[?]|UMI|2021-04-04|84|
e|DM|aeec3c61-c825-482e-b77e-a9b8e0bb1f68|aeec3c61-c825-482e-b77e-a9b8e0bb1f68|2020-08-05|2020-08-27|2020-08-05|2020-11-12|2020-08-05|2020-11-12|||Comanche|2020-10-04|41|YEARS|F|UNKNOWN|UNKNOWN|5-P-10|5mg - Placebo- 10mg|5-P-10|5mg - Placebo- 10mg|[?]|UMI|2020-11-02|90|
e|DM|6ec23671-252e-4dc9-b919-88254fce68a5|6ec23671-252e-4dc9-b919-88254fce68a5|2020-07-19|2020-08-12|2020-07-19|2020-10-26|2020-07-19|2020-10-26|||Hoboken|2020-09-17|66|YEARS|F|UNKNOWN|HISPANIC OR LATINO|P-5-10|Placebo - 5mg - 10mg|P-5-10|Placebo - 5mg - 10mg|[?]|UMI|2020-07-24|6|
e|DM|db59e5e1-ccda-480b-8955-da5157e16c4a|db59e5e1-ccda-480b-8955-da5157e16c4a|2020-05-05|2020-06-01|2020-05-05|2020-08-12|2020-05-05|2020-08-12|||Bridle Creek|2020-07-17|28|YEARS|F|NOT REPORTED|NOT REPORTED|5-10-P|5mg - 10mg- Placebo|5-10-P|5mg - 10mg- Placebo|[?]|UMI|2020-06-04|31|
e|DM|1dce856e-b7cb-4899-b27f-87ab8d918df4|1dce856e-b7cb-4899-b27f-87ab8d918df4|2020-09-03|2020-09-07|2020-09-03|2020-12-11|2020-09-03|2020-12-11|||Mount Vernon|2020-10-08|38|YEARS|F|NOT REPORTED|HISPANIC OR LATINO|5-P-10|5mg - Placebo- 10mg|5-P-10|5mg - Placebo- 10mg|[?]|UMI|2020-09-14|12|
e|DM|7449180b-e226-4e97-a059-8760f6523f77|7449180b-e226-4e97-a059-8760f6523f77|2020-06-25|2020-09-02|2020-06-25|2020-10-02|2020-06-25|2020-10-02|||Grays|2020-09-21|58|YEARS|M|AMERICAN INDIAN OR ALASKA NATIVE|NOT REPORTED|5-10-P|5mg - 10mg- Placebo|5-10-P|5mg - 10mg- Placebo|[?]|UMI|2020-09-09|77|
e|DM|f077c497-b0f0-4a20-b448-608b0cc6ab36|f077c497-b0f0-4a20-b448-608b0cc6ab36|2020-05-30|2020-06-18|2020-05-30|2020-09-06|2020-05-30|2020-09-06|||Pierce|2020-08-02|57|YEARS|M|NOT REPORTED|NOT REPORTED|P-5-10|Placebo - 5mg - 10mg|P-5-10|Placebo - 5mg - 10mg|[?]|UMI|2020-08-06|69|
e|DM|172f12c6-0d7f-4e9b-be14-b64b94a26f9a|172f12c6-0d7f-4e9b-be14-b64b94a26f9a|2020-06-03|2020-08-28|2020-06-03|2020-09-10|2020-06-03|2020-09-10|||Ege|2020-06-21|60|YEARS|M|AMERICAN INDIAN OR ALASKA NATIVE|UNKNOWN|5-P-10|5mg - Placebo- 10mg|5-P-10|5mg - Placebo- 10mg|[?]|UMI|2020-07-22|50|
e|DM|3f7c46ac-fe30-4ef3-a581-99c064a85efa|3f7c46ac-fe30-4ef3-a581-99c064a85efa|2021-01-02|2021-03-14|2021-01-02|2021-04-11|2021-01-02|2021-04-11|||Fort Crook|2021-03-07|62|YEARS|M|NOT REPORTED|NOT HISPANIC OR LATINO|P-5-10|Placebo - 5mg - 10mg|P-5-10|Placebo - 5mg - 10mg|[?]|UMI|2021-03-04|62|
e|DM|8d944400-df75-4ec7-8fb4-239eb0f6de9d|8d944400-df75-4ec7-8fb4-239eb0f6de9d|2020-09-13|2020-10-02|2020-09-13|2020-12-21|2020-09-13|2020-12-21|||Dickey|2020-11-29|39|YEARS|M|AMERICAN INDIAN OR ALASKA NATIVE|HISPANIC OR LATINO|5-10-P|5mg - 10mg- Placebo|5-10-P|5mg - 10mg- Placebo|[?]|UMI|2020-11-24|73|
e|DM|7b201f93-bd8c-4507-a7b7-27a02e364647|7b201f93-bd8c-4507-a7b7-27a02e364647|2020-12-14|2021-03-13|2020-12-14|2021-03-23|2020-12-14|2021-03-23|||Springville Lake Estates|2021-02-15|15|YEARS|F|BLACK OR AFRICAN AMERICAN|UNKNOWN|5-10-P|5mg - 10mg- Placebo|5-10-P|5mg - 10mg- Placebo|[?]|UMI|2021-02-12|61|
e|DM|fbc3f1fc-c3e7-4db5-8156-77ba9a459073|fbc3f1fc-c3e7-4db5-8156-77ba9a459073|2020-07-27|2020-09-21|2020-07-27|2020-11-03|2020-07-27|2020-11-03|||Welsh Heights|2020-08-24|35|YEARS|F|WHITE|HISPANIC OR LATINO|5-10-P|5mg - 10mg- Placebo|5-10-P|5mg - 10mg- Placebo|[?]|UMI|2020-09-27|63|
e|DM|3611b798-9b3d-4173-b23e-3017939847e0|3611b798-9b3d-4173-b23e-3017939847e0|2020-07-25|2020-08-28|2020-07-25|2020-11-01|2020-07-25|2020-11-01|||P and H Mobile Home Court|2020-07-30|46|YEARS|M|BLACK OR AFRICAN AMERICAN|NOT HISPANIC OR LATINO|P-5-10|Placebo - 5mg - 10mg|P-5-10|Placebo - 5mg - 10mg|[?]|UMI|2020-09-05|43|
e|DM|f651799b-9723-4c2c-88d1-de2f347e9a69|f651799b-9723-4c2c-88d1-de2f347e9a69|2020-06-15|2020-07-27|2020-06-15|2020-09-22|2020-06-15|2020-09-22|||Broadway Mobile Home Park|2020-07-26|29|YEARS|F|NOT REPORTED|NOT HISPANIC OR LATINO|5-10-P|5mg - 10mg- Placebo|5-10-P|5mg - 10mg- Placebo|[?]|UMI|2020-07-22|38|
e|DM|51c6f0e2-6a67-40cd-aac8-fd4cd0188b42|51c6f0e2-6a67-40cd-aac8-fd4cd0188b42|2020-10-10|2020-11-30|2020-10-10|2021-01-17|2020-10-10|2021-01-17|||Hermitage|2020-12-06|19|YEARS|M|NOT REPORTED|HISPANIC OR LATINO|5-P-10|5mg - Placebo- 10mg|5-P-10|5mg - Placebo- 10mg|[?]|UMI|2020-12-25|77|
e|DM|29b16c31-df0e-493c-a777-46113b904879|29b16c31-df0e-493c-a777-46113b904879|2020-05-29|2020-07-06|2020-05-29|2020-09-05|2020-05-29|2020-09-05|||Ugtumuk (historical)|2020-07-11|69|YEARS|F|AMERICAN INDIAN OR ALASKA NATIVE|UNKNOWN|P-5-10|Placebo - 5mg - 10mg|P-5-10|Placebo - 5mg - 10mg|[?]|UMI|2020-06-13|16|
e|DM|56b7d8fb-23b2-4f0a-9bc6-8e6621937251|56b7d8fb-23b2-4f0a-9bc6-8e6621937251|2020-07-22|2020-09-21|2020-07-22|2020-10-29|2020-07-22|2020-10-29|||Millerville|2020-08-22|70|YEARS|F|NOT REPORTED|UNKNOWN|5-P-10|5mg - Placebo- 10mg|5-P-10|5mg - Placebo- 10mg|[?]|UMI|2020-10-03|74|
e|DM|118914c8-9f6a-47c8-b427-296a99547756|118914c8-9f6a-47c8-b427-296a99547756|2020-10-16|2020-12-19|2020-10-16|2021-01-23|2020-10-16|2021-01-23|||Spring Mill|2020-10-30|44|YEARS|F|WHITE|NOT HISPANIC OR LATINO|5-10-P|5mg - 10mg- Placebo|5-10-P|5mg - 10mg- Placebo|[?]|UMI|2020-11-05|21|
e|DM|9b936ec9-01d9-4626-8d6d-83f3a1aefd96|9b936ec9-01d9-4626-8d6d-83f3a1aefd96|2020-11-30|2021-02-06|2020-11-30|2021-03-09|2020-11-30|2021-03-09|||Grand Eddy|2021-02-27|23|YEARS|M|BLACK OR AFRICAN AMERICAN|HISPANIC OR LATINO|5-P-10|5mg - Placebo- 10mg|5-P-10|5mg - Placebo- 10mg|[?]|UMI|2021-02-07|70|
e|DM|571cbffe-c3e1-4f18-a9f7-cf11a4058f2c|571cbffe-c3e1-4f18-a9f7-cf11a4058f2c|2020-12-30|2021-04-07|2020-12-30|2021-04-08|2020-12-30|2021-04-08|||Park Rose|2021-04-06|51|YEARS|M|UNKNOWN|NOT HISPANIC OR LATINO|P-5-10|Placebo - 5mg - 10mg|P-5-10|Placebo - 5mg - 10mg|[?]|UMI|2021-03-22|83|
e|DM|7a5ae465-03b9-4006-a29e-94822ed857aa|7a5ae465-03b9-4006-a29e-94822ed857aa|2020-06-23|2020-08-02|2020-06-23|2020-09-30|2020-06-23|2020-09-30|||Emma|2020-07-11|39|YEARS|F|UNKNOWN|UNKNOWN|5-10-P|5mg - 10mg- Placebo|5-10-P|5mg - 10mg- Placebo|[?]|UMI|2020-09-06|76|
e|DM|179801c9-6c40-4d58-b8a6-6f2cee9c9d58|179801c9-6c40-4d58-b8a6-6f2cee9c9d58|2020-09-13|2020-11-01|2020-09-13|2020-12-21|2020-09-13|2020-12-21|||Tyler|2020-12-19|27|YEARS|F|WHITE|NOT REPORTED|P-5-10|Placebo - 5mg - 10mg|P-5-10|Placebo - 5mg - 10mg|[?]|UMI|2020-09-27|15|
e|DM|2e4cd860-734a-40b0-bde5-ca08297415a9|2e4cd860-734a-40b0-bde5-ca08297415a9|2020-11-16|2020-12-22|2020-11-16|2021-02-23|2020-11-16|2021-02-23|||North Tustin|2020-12-02|60|YEARS|M|BLACK OR AFRICAN AMERICAN|UNKNOWN|5-P-10|5mg - Placebo- 10mg|5-P-10|5mg - Placebo- 10mg|[?]|UMI|2020-12-05|20|
e|DM|3f1854fb-d14e-4699-888b-d5042fa9327c|3f1854fb-d14e-4699-888b-d5042fa9327c|2020-07-26|2020-09-01|2020-07-26|2020-11-02|2020-07-26|2020-11-02|||Point Elizabeth|2020-09-23|62|YEARS|M|NOT REPORTED|NOT HISPANIC OR LATINO|P-5-10|Placebo - 5mg - 10mg|P-5-10|Placebo - 5mg - 10mg|[?]|UMI|2020-08-09|15|
e|DM|f6e37eba-e224-47f3-baa0-59dfdfb47b70|f6e37eba-e224-47f3-baa0-59dfdfb47b70|2020-12-01|2020-12-13|2020-12-01|2021-03-10|2020-12-01|2021-03-10|||Persia (historical)|2021-02-14|32|YEARS|F|ASIAN|NOT REPORTED|5-P-10|5mg - Placebo- 10mg|5-P-10|5mg - Placebo- 10mg|[?]|UMI|2021-01-27|58|
e|DM|8298b45d-16ff-42ef-8404-0f3ce628f9e5|8298b45d-16ff-42ef-8404-0f3ce628f9e5|2020-07-22|2020-10-06|2020-07-22|2020-10-29|2020-07-22|2020-10-29|||North Highlands|2020-08-01|10|YEARS|F|ASIAN|HISPANIC OR LATINO|5-10-P|5mg - 10mg- Placebo|5-10-P|5mg - 10mg- Placebo|[?]|UMI|2020-08-26|36|
e|DM|ee5c6623-5cb4-4f18-99b0-6373328abc1d|ee5c6623-5cb4-4f18-99b0-6373328abc1d|2020-06-02|2020-09-01|2020-06-02|2020-09-09|2020-06-02|2020-09-09|||Epinup|2020-07-23|32|YEARS|F|ASIAN|HISPANIC OR LATINO|5-10-P|5mg - 10mg- Placebo|5-10-P|5mg - 10mg- Placebo|[?]|UMI|2020-07-08|37|
e|DM|f8d6576b-b300-4c5f-8f5a-6bb35250d576|f8d6576b-b300-4c5f-8f5a-6bb35250d576|2020-06-16|2020-07-03|2020-06-16|2020-09-23|2020-06-16|2020-09-23|||Dorseyville|2020-09-08|26|YEARS|F|NOT REPORTED|NOT HISPANIC OR LATINO|P-5-10|Placebo - 5mg - 10mg|P-5-10|Placebo - 5mg - 10mg|[?]|UMI|2020-08-17|63|
e|DM|8635a6b3-d16e-432c-90bf-53f1494dbe5e|8635a6b3-d16e-432c-90bf-53f1494dbe5e|2020-10-17|2020-11-27|2020-10-17|2021-01-24|2020-10-17|2021-01-24|||Westwood|2020-11-18|62|YEARS|F|BLACK OR AFRICAN AMERICAN|NOT HISPANIC OR LATINO|5-P-10|5mg - Placebo- 10mg|5-P-10|5mg - Placebo- 10mg|[?]|UMI|2020-10-19|3|
e|DM|2cda4297-410a-49e4-949c-deb3dc4c6656|2cda4297-410a-49e4-949c-deb3dc4c6656|2020-06-11|2020-09-13|2020-06-11|2020-09-18|2020-06-11|2020-09-18|||Lotus|2020-08-02|17|YEARS|F|NOT REPORTED|HISPANIC OR LATINO|5-P-10|5mg - Placebo- 10mg|5-P-10|5mg - Placebo- 10mg|[?]|UMI|2020-09-13|95|
e|DM|a74b51fe-34f5-4c8f-971f-d42e15f9cf41|a74b51fe-34f5-4c8f-971f-d42e15f9cf41|2021-01-20|2021-04-17|2021-01-20|2021-04-29|2021-01-20|2021-04-29|||Altizer|2021-02-22|63|YEARS|F|UNKNOWN|NOT REPORTED|5-P-10|5mg - Placebo- 10mg|5-P-10|5mg - Placebo- 10mg|[?]|UMI|2021-03-25|65|
e|DM|9e82141b-e2b9-42c7-b813-b79bda2bd216|9e82141b-e2b9-42c7-b813-b79bda2bd216|2020-05-22|2020-06-18|2020-05-22|2020-08-29|2020-05-22|2020-08-29|||Rico Diaz|2020-08-27|75|YEARS|M|NATIVE HAWAIIAN OR OTHER PACIFIC ISLANDER|UNKNOWN|5-10-P|5mg - 10mg- Placebo|5-10-P|5mg - 10mg- Placebo|[?]|UMI|2020-06-14|24|
e|DM|4b432c61-c620-4c5e-8aad-411facc0f4db|4b432c61-c620-4c5e-8aad-411facc0f4db|2020-09-05|2020-11-23|2020-09-05|2020-12-13|2020-09-05|2020-12-13|||Hillside|2020-11-18|17|YEARS|F|AMERICAN INDIAN OR ALASKA NATIVE|HISPANIC OR LATINO|P-5-10|Placebo - 5mg - 10mg|P-5-10|Placebo - 5mg - 10mg|[?]|UMI|2020-11-13|70|
e|DM|1a1e6863-26da-4b5d-b82a-5703e3e9056e|1a1e6863-26da-4b5d-b82a-5703e3e9056e|2020-12-17|2020-12-21|2020-12-17|2021-03-26|2020-12-17|2021-03-26|||Green Acre|2021-03-12|74|YEARS|M|NOT REPORTED|NOT REPORTED|P-5-10|Placebo - 5mg - 10mg|P-5-10|Placebo - 5mg - 10mg|[?]|UMI|2021-02-11|57|
e|DM|8c8053d1-adae-4d45-870e-cf4ad2475c74|8c8053d1-adae-4d45-870e-cf4ad2475c74|2020-05-02|2020-07-27|2020-05-02|2020-08-09|2020-05-02|2020-08-09|||Pass Christian|2020-06-02|71|YEARS|F|WHITE|UNKNOWN|P-5-10|Placebo - 5mg - 10mg|P-5-10|Placebo - 5mg - 10mg|[?]|UMI|2020-06-25|55|
e|DM|c3b911a8-116e-4940-80a2-7128db004f4a|c3b911a8-116e-4940-80a2-7128db004f4a|2020-11-10|2020-12-27|2020-11-10|2021-02-17|2020-11-10|2021-02-17|||Swanson Corners|2020-11-27|13|YEARS|M|WHITE|UNKNOWN|5-10-P|5mg - 10mg- Placebo|5-10-P|5mg - 10mg- Placebo|[?]|UMI|2021-02-14|97|
e|DM|401d66ba-bc00-4495-ba5d-796068dd1fd6|401d66ba-bc00-4495-ba5d-796068dd1fd6|2020-06-02|2020-08-22|2020-06-02|2020-09-09|2020-06-02|2020-09-09|||Timberlyne|2020-08-14|74|YEARS|M|ASIAN|UNKNOWN|5-P-10|5mg - Placebo- 10mg|5-P-10|5mg - Placebo- 10mg|[?]|UMI|2020-08-01|61|
e|DM|f8113725-4deb-48a1-876a-ba168a6d2cee|f8113725-4deb-48a1-876a-ba168a6d2cee|2021-01-13|2021-02-27|2021-01-13|2021-04-22|2021-01-13|2021-04-22|||Oakland|2021-02-16|62|YEARS|F|NATIVE HAWAIIAN OR OTHER PACIFIC ISLANDER|UNKNOWN|P-5-10|Placebo - 5mg - 10mg|P-5-10|Placebo - 5mg - 10mg|[?]|UMI|2021-03-20|67|
e|DM|f056c174-b6da-4df6-bf95-2e31911939fb|f056c174-b6da-4df6-bf95-2e31911939fb|2020-12-07|2021-01-05|2020-12-07|2021-03-16|2020-12-07|2021-03-16|||Red Lion|2020-12-08|11|YEARS|F|NATIVE HAWAIIAN OR OTHER PACIFIC ISLANDER|NOT REPORTED|5-10-P|5mg - 10mg- Placebo|5-10-P|5mg - 10mg- Placebo|[?]|UMI|2021-01-08|33|
e|DM|b265eb9f-88e1-42d8-83a5-4bc40e46ab54|b265eb9f-88e1-42d8-83a5-4bc40e46ab54|2020-09-07|2020-09-10|2020-09-07|2020-12-15|2020-09-07|2020-12-15|||Methuen|2020-10-24|62|YEARS|M|BLACK OR AFRICAN AMERICAN|NOT HISPANIC OR LATINO|P-5-10|Placebo - 5mg - 10mg|P-5-10|Placebo - 5mg - 10mg|[?]|UMI|2020-10-07|31|
e|DM|57b7f30f-5f2a-425d-8bf2-fd5915cac481|57b7f30f-5f2a-425d-8bf2-fd5915cac481|2021-01-09|2021-03-29|2021-01-09|2021-04-18|2021-01-09|2021-04-18|||Malone|2021-01-11|23|YEARS|F|ASIAN|NOT HISPANIC OR LATINO|P-5-10|Placebo - 5mg - 10mg|P-5-10|Placebo - 5mg - 10mg|[?]|UMI|2021-03-14|65|
e|DM|02d9a74a-abc8-4b47-a4d4-a196d339f621|02d9a74a-abc8-4b47-a4d4-a196d339f621|2020-09-05|2020-09-13|2020-09-05|2020-12-13|2020-09-05|2020-12-13|||Mayfair|2020-11-12|51|YEARS|M|NOT REPORTED|NOT HISPANIC OR LATINO|P-5-10|Placebo - 5mg - 10mg|P-5-10|Placebo - 5mg - 10mg|[?]|UMI|2020-09-25|21|
e|DM|81480f83-206f-40c0-a5a4-f75b31cda363|81480f83-206f-40c0-a5a4-f75b31cda363|2020-11-13|2021-02-15|2020-11-13|2021-02-20|2020-11-13|2021-02-20|||Whitlow|2020-11-26|18|YEARS|M|BLACK OR AFRICAN AMERICAN|NOT HISPANIC OR LATINO|5-P-10|5mg - Placebo- 10mg|5-P-10|5mg - Placebo- 10mg|[?]|UMI|2021-02-12|92|
e|DM|2b183b69-3ed8-4356-b9e2-0988128de3f2|2b183b69-3ed8-4356-b9e2-0988128de3f2|2020-10-07|2020-11-06|2020-10-07|2021-01-14|2020-10-07|2021-01-14|||Saint Clair|2020-12-22|73|YEARS|F|BLACK OR AFRICAN AMERICAN|HISPANIC OR LATINO|P-5-10|Placebo - 5mg - 10mg|P-5-10|Placebo - 5mg - 10mg|[?]|UMI|2020-10-28|22|
e|DM|6ed8a749-81c0-4998-817d-efc86cfaa091|6ed8a749-81c0-4998-817d-efc86cfaa091|2020-05-27|2020-08-12|2020-05-27|2020-09-03|2020-05-27|2020-09-03|||Shup (historical)|2020-08-21|62|YEARS|F|AMERICAN INDIAN OR ALASKA NATIVE|NOT REPORTED|P-5-10|Placebo - 5mg - 10mg|P-5-10|Placebo - 5mg - 10mg|[?]|UMI|2020-06-06|11|
e|DM|b0f061e5-5dc0-422d-8d96-e7b1af8bda6b|b0f061e5-5dc0-422d-8d96-e7b1af8bda6b|2021-01-09|2021-01-27|2021-01-09|2021-04-18|2021-01-09|2021-04-18|||Midway|2021-04-08|30|YEARS|M|UNKNOWN|HISPANIC OR LATINO|5-P-10|5mg - Placebo- 10mg|5-P-10|5mg - Placebo- 10mg|[?]|UMI|2021-02-16|39|
e|DM|e6162980-e240-4924-a13a-dde28b2345cd|e6162980-e240-4924-a13a-dde28b2345cd|2020-08-02|2020-09-10|2020-08-02|2020-11-09|2020-08-02|2020-11-09|||Brickyard Junction|2020-11-04|13|YEARS|M|ASIAN|UNKNOWN|P-5-10|Placebo - 5mg - 10mg|P-5-10|Placebo - 5mg - 10mg|[?]|UMI|2020-10-27|87|
e|DM|3dc9c666-8be3-4cfa-88d4-b18647e08d00|3dc9c666-8be3-4cfa-88d4-b18647e08d00|2020-06-04|2020-07-22|2020-06-04|2020-09-11|2020-06-04|2020-09-11|||South Paw Paw|2020-09-05|52|YEARS|M|BLACK OR AFRICAN AMERICAN|NOT REPORTED|5-P-10|5mg - Placebo- 10mg|5-P-10|5mg - Placebo- 10mg|[?]|UMI|2020-08-26|84|
e|DM|6aed5c2d-d5b1-4969-9a8a-14a79a839dbc|6aed5c2d-d5b1-4969-9a8a-14a79a839dbc|2021-01-14|2021-01-30|2021-01-14|2021-04-23|2021-01-14|2021-04-23|||Salinas Zona Urbana|2021-01-17|45|YEARS|F|WHITE|NOT HISPANIC OR LATINO|P-5-10|Placebo - 5mg - 10mg|P-5-10|Placebo - 5mg - 10mg|[?]|UMI|2021-04-15|92|
e|DM|b3da6961-98dc-4f83-9cf4-dbc7f4a91c61|b3da6961-98dc-4f83-9cf4-dbc7f4a91c61|2020-11-10|2020-11-11|2020-11-10|2021-02-17|2020-11-10|2021-02-17|||Earl|2020-12-04|79|YEARS|F|WHITE|NOT HISPANIC OR LATINO|P-5-10|Placebo - 5mg - 10mg|P-5-10|Placebo - 5mg - 10mg|[?]|UMI|2021-01-23|75|
e|DM|2738b933-c71d-4239-a093-6b4aa7cc41df|2738b933-c71d-4239-a093-6b4aa7cc41df|2020-05-19|2020-06-13|2020-05-19|2020-08-26|2020-05-19|2020-08-26|||Farmington Lakes|2020-06-09|42|YEARS|F|NOT REPORTED|HISPANIC OR LATINO|P-5-10|Placebo - 5mg - 10mg|P-5-10|Placebo - 5mg - 10mg|[?]|UMI|2020-06-30|43|
e|DM|68b9ff4e-9694-4545-a752-4d3ac0e89fda|68b9ff4e-9694-4545-a752-4d3ac0e89fda|2020-12-30|2021-02-20|2020-12-30|2021-04-08|2020-12-30|2021-04-08|||Fort Lewis|2021-03-01|46|YEARS|F|WHITE|HISPANIC OR LATINO|5-10-P|5mg - 10mg- Placebo|5-10-P|5mg - 10mg- Placebo|[?]|UMI|2021-02-09|42|
e|DM|0f0ec179-5100-4a3d-9f93-54140aca7d30|0f0ec179-5100-4a3d-9f93-54140aca7d30|2020-08-16|2020-09-15|2020-08-16|2020-11-23|2020-08-16|2020-11-23|2020-11-23|Y|Joppa|2020-08-18|31|YEARS|M|ASIAN|NOT HISPANIC OR LATINO|5-10-P|5mg - 10mg- Placebo|5-10-P|5mg - 10mg- Placebo|[?]|UMI|2020-11-13|90|
e|DM|6affe43d-e455-40af-8478-dc38019e89e1|6affe43d-e455-40af-8478-dc38019e89e1|2020-06-08|2020-06-26|2020-06-08|2020-09-15|2020-06-08|2020-09-15|||Pine Trail Estates|2020-08-07|80|YEARS|F|AMERICAN INDIAN OR ALASKA NATIVE|NOT REPORTED|P-5-10|Placebo - 5mg - 10mg|P-5-10|Placebo - 5mg - 10mg|[?]|UMI|2020-09-08|93|
e|DM|1c090c96-0a6c-45dd-b862-0aa3d9d579cb|1c090c96-0a6c-45dd-b862-0aa3d9d579cb|2020-05-29|2020-06-05|2020-05-29|2020-09-05|2020-05-29|2020-09-05|||Gould|2020-08-19|24|YEARS|F|UNKNOWN|HISPANIC OR LATINO|P-5-10|Placebo - 5mg - 10mg|P-5-10|Placebo - 5mg - 10mg|[?]|UMI|2020-06-13|16|
e|DM|e0258c95-7bcc-4b54-895c-f290a1364b5c|e0258c95-7bcc-4b54-895c-f290a1364b5c|2020-12-18|2021-01-19|2020-12-18|2021-03-27|2020-12-18|2021-03-27|||Colgate|2021-03-11|55|YEARS|F|NOT REPORTED|HISPANIC OR LATINO|5-P-10|5mg - Placebo- 10mg|5-P-10|5mg - Placebo- 10mg|[?]|UMI|2021-02-22|67|
e|DM|7218f9ae-0119-4633-a8d3-7d98b2ae1671|7218f9ae-0119-4633-a8d3-7d98b2ae1671|2021-01-04|2021-02-04|2021-01-04|2021-04-13|2021-01-04|2021-04-13|||Galt|2021-04-02|76|YEARS|F|NOT REPORTED|HISPANIC OR LATINO|5-10-P|5mg - 10mg- Placebo|5-10-P|5mg - 10mg- Placebo|[?]|UMI|2021-04-06|93|
e|DM|f8c938ff-21c8-4d0b-9335-08d2865543ab|f8c938ff-21c8-4d0b-9335-08d2865543ab|2020-05-02|2020-05-04|2020-05-02|2020-08-09|2020-05-02|2020-08-09|||Plumbsock|2020-05-08|27|YEARS|M|AMERICAN INDIAN OR ALASKA NATIVE|HISPANIC OR LATINO|P-5-10|Placebo - 5mg - 10mg|P-5-10|Placebo - 5mg - 10mg|[?]|UMI|2020-06-24|54|
e|DM|7176f852-7392-4636-800f-3aad48e93065|7176f852-7392-4636-800f-3aad48e93065|2021-01-07|2021-03-15|2021-01-07|2021-04-16|2021-01-07|2021-04-16|||Avon|2021-01-27|69|YEARS|M|UNKNOWN|NOT REPORTED|P-5-10|Placebo - 5mg - 10mg|P-5-10|Placebo - 5mg - 10mg|[?]|UMI|2021-02-25|50|
e|DM|753d5d9d-ec84-46f5-a933-b18b8e3a6b0e|753d5d9d-ec84-46f5-a933-b18b8e3a6b0e|2020-09-29|2020-10-09|2020-09-29|2021-01-06|2020-09-29|2021-01-06|||Lincoln Acres|2020-11-11|34|YEARS|M|AMERICAN INDIAN OR ALASKA NATIVE|NOT REPORTED|5-10-P|5mg - 10mg- Placebo|5-10-P|5mg - 10mg- Placebo|[?]|UMI|2020-12-23|86|
e|DM|69e41d6b-57f7-48b0-be7a-29fca953f8d9|69e41d6b-57f7-48b0-be7a-29fca953f8d9|2020-10-19|2020-11-07|2020-10-19|2021-01-26|2020-10-19|2021-01-26|||Melgrove (historical)|2020-11-25|46|YEARS|M|UNKNOWN|NOT REPORTED|P-5-10|Placebo - 5mg - 10mg|P-5-10|Placebo - 5mg - 10mg|[?]|UMI|2021-01-15|89|
e|DM|a38eb4fc-2422-4d4a-a435-58ae9bf42589|a38eb4fc-2422-4d4a-a435-58ae9bf42589|2020-11-14|2020-12-04|2020-11-14|2021-02-21|2020-11-14|2021-02-21|||North Cohasset|2020-11-25|51|YEARS|M|ASIAN|NOT HISPANIC OR LATINO|P-5-10|Placebo - 5mg - 10mg|P-5-10|Placebo - 5mg - 10mg|[?]|UMI|2021-02-16|95|
e|DM|12ae2530-f9f6-4e7d-9daa-fdfaacb1c747|12ae2530-f9f6-4e7d-9daa-fdfaacb1c747|2020-09-17|2020-10-19|2020-09-17|2020-12-25|2020-09-17|2020-12-25|2020-12-25|Y|Mount Pisgah|2020-11-10|57|YEARS|F|WHITE|NOT REPORTED|5-10-P|5mg - 10mg- Placebo|5-10-P|5mg - 10mg- Placebo|[?]|UMI|2020-12-18|93|
e|DM|29e42c28-c2f8-4c27-9a6d-12f0d5fa4ab3|29e42c28-c2f8-4c27-9a6d-12f0d5fa4ab3|2020-12-23|2021-01-28|2020-12-23|2021-04-01|2020-12-23|2021-04-01|||Glen Richey|2021-01-28|76|YEARS|M|BLACK OR AFRICAN AMERICAN|NOT REPORTED|P-5-10|Placebo - 5mg - 10mg|P-5-10|Placebo - 5mg - 10mg|[?]|UMI|2021-03-14|82|
e|DM|dd518f55-0280-445d-a29f-10f09b21fd53|dd518f55-0280-445d-a29f-10f09b21fd53|2020-05-09|2020-07-12|2020-05-09|2020-08-16|2020-05-09|2020-08-16|||Point Mills|2020-07-19|55|YEARS|M|NATIVE HAWAIIAN OR OTHER PACIFIC ISLANDER|NOT HISPANIC OR LATINO|5-10-P|5mg - 10mg- Placebo|5-10-P|5mg - 10mg- Placebo|[?]|UMI|2020-06-16|39|
e|DM|49a972da-dfad-438e-b5bc-26ee6b955a59|49a972da-dfad-438e-b5bc-26ee6b955a59|2020-06-15|2020-08-16|2020-06-15|2020-09-22|2020-06-15|2020-09-22|||Huronia Beach (historical)|2020-06-18|17|YEARS|M|AMERICAN INDIAN OR ALASKA NATIVE|HISPANIC OR LATINO|5-10-P|5mg - 10mg- Placebo|5-10-P|5mg - 10mg- Placebo|[?]|UMI|2020-07-25|41|
e|DM|502a42a7-2ed6-46b9-9b10-728f849334b6|502a42a7-2ed6-46b9-9b10-728f849334b6|2020-11-12|2021-01-25|2020-11-12|2021-02-19|2020-11-12|2021-02-19|||Cunningham Corner|2021-01-23|70|YEARS|F|ASIAN|NOT REPORTED|5-10-P|5mg - 10mg- Placebo|5-10-P|5mg - 10mg- Placebo|[?]|UMI|2020-12-12|31|
e|DM|61cce2a8-16d6-4cb3-91fc-71f1f2f02551|61cce2a8-16d6-4cb3-91fc-71f1f2f02551|2020-10-17|2020-12-26|2020-10-17|2021-01-24|2020-10-17|2021-01-24|||Sunny Valley|2021-01-04|49|YEARS|F|UNKNOWN|HISPANIC OR LATINO|5-10-P|5mg - 10mg- Placebo|5-10-P|5mg - 10mg- Placebo|[?]|UMI|2020-12-23|68|
e|DM|40c048ea-d637-426b-8afe-2da3a6961528|40c048ea-d637-426b-8afe-2da3a6961528|2020-07-04|2020-09-08|2020-07-04|2020-10-11|2020-07-04|2020-10-11|||Sauk City|2020-08-13|69|YEARS|M|AMERICAN INDIAN OR ALASKA NATIVE|UNKNOWN|5-P-10|5mg - Placebo- 10mg|5-P-10|5mg - Placebo- 10mg|[?]|UMI|2020-08-20|48|
e|DM|4d03b209-bd53-47f5-8251-f9fb2074bc38|4d03b209-bd53-47f5-8251-f9fb2074bc38|2020-12-24|2021-03-20|2020-12-24|2021-04-02|2020-12-24|2021-04-02|||Killarney Shores|2021-02-16|46|YEARS|M|WHITE|HISPANIC OR LATINO|5-10-P|5mg - 10mg- Placebo|5-10-P|5mg - 10mg- Placebo|[?]|UMI|2021-03-07|74|
e|DM|35f01eda-1acb-4700-8285-c8cd4b69b524|35f01eda-1acb-4700-8285-c8cd4b69b524|2020-09-21|2020-12-25|2020-09-21|2020-12-29|2020-09-21|2020-12-29|||Hothouse|2020-10-14|58|YEARS|M|NATIVE HAWAIIAN OR OTHER PACIFIC ISLANDER|HISPANIC OR LATINO|5-P-10|5mg - Placebo- 10mg|5-P-10|5mg - Placebo- 10mg|[?]|UMI|2020-11-28|69|
e|DM|9df97277-7d07-4020-bae0-dfa982f21c8d|9df97277-7d07-4020-bae0-dfa982f21c8d|2020-10-24|2020-12-22|2020-10-24|2021-01-31|2020-10-24|2021-01-31|||Marquette|2020-11-09|41|YEARS|M|UNKNOWN|UNKNOWN|5-P-10|5mg - Placebo- 10mg|5-P-10|5mg - Placebo- 10mg|[?]|UMI|2021-01-10|79|
e|DM|d1b522d5-557a-4361-a9da-292aa601fbc3|d1b522d5-557a-4361-a9da-292aa601fbc3|2020-09-30|2020-10-23|2020-09-30|2021-01-07|2020-09-30|2021-01-07|||Dunlap (historical)|2020-11-30|55|YEARS|F|NATIVE HAWAIIAN OR OTHER PACIFIC ISLANDER|NOT HISPANIC OR LATINO|5-10-P|5mg - 10mg- Placebo|5-10-P|5mg - 10mg- Placebo|[?]|UMI|2020-12-29|91|
e|DM|c6343fe8-6005-4fe8-b3e6-cfcb56c2d360|c6343fe8-6005-4fe8-b3e6-cfcb56c2d360|2020-07-18|2020-08-09|2020-07-18|2020-10-25|2020-07-18|2020-10-25|||Higgins Corner|2020-10-17|56|YEARS|M|BLACK OR AFRICAN AMERICAN|HISPANIC OR LATINO|P-5-10|Placebo - 5mg - 10mg|P-5-10|Placebo - 5mg - 10mg|[?]|UMI|2020-08-04|18|
e|DM|da2d0844-3608-4927-9103-cb7c52dd2c96|da2d0844-3608-4927-9103-cb7c52dd2c96|2021-01-17|2021-04-12|2021-01-17|2021-04-26|2021-01-17|2021-04-26|||Malta Meadows|2021-02-09|49|YEARS|F|AMERICAN INDIAN OR ALASKA NATIVE|HISPANIC OR LATINO|5-10-P|5mg - 10mg- Placebo|5-10-P|5mg - 10mg- Placebo|[?]|UMI|2021-01-27|11|
e|DM|30b6f8a7-4512-462d-a162-45c3dad853e5|30b6f8a7-4512-462d-a162-45c3dad853e5|2020-11-23|2021-02-13|2020-11-23|2021-03-02|2020-11-23|2021-03-02|||Allen|2021-01-31|75|YEARS|F|UNKNOWN|NOT REPORTED|5-10-P|5mg - 10mg- Placebo|5-10-P|5mg - 10mg- Placebo|[?]|UMI|2021-01-16|55|
e|DM|1a3808b9-6004-4133-8f59-49905d04655e|1a3808b9-6004-4133-8f59-49905d04655e|2020-10-29|2020-11-28|2020-10-29|2021-02-05|2020-10-29|2021-02-05|||Elim|2021-01-29|57|YEARS|F|NATIVE HAWAIIAN OR OTHER PACIFIC ISLANDER|HISPANIC OR LATINO|5-10-P|5mg - 10mg- Placebo|5-10-P|5mg - 10mg- Placebo|[?]|UMI|2020-11-12|15|
e|DM|5c91894d-c756-4ade-9fc4-2a64d4acc53f|5c91894d-c756-4ade-9fc4-2a64d4acc53f|2021-01-10|2021-03-14|2021-01-10|2021-04-19|2021-01-10|2021-04-19|||Troy|2021-02-26|76|YEARS|M|WHITE|NOT REPORTED|5-P-10|5mg - Placebo- 10mg|5-P-10|5mg - Placebo- 10mg|[?]|UMI|2021-02-13|35|
e|DM|cc9d17ea-ec8b-46bb-af7d-ad19da3cfb20|cc9d17ea-ec8b-46bb-af7d-ad19da3cfb20|2020-07-06|2020-10-03|2020-07-06|2020-10-13|2020-07-06|2020-10-13|||Dallas|2020-07-31|64|YEARS|M|WHITE|NOT HISPANIC OR LATINO|5-P-10|5mg - Placebo- 10mg|5-P-10|5mg - Placebo- 10mg|[?]|UMI|2020-09-09|66|
e|DM|4a6cff44-d7c3-410f-afe0-a11ae0e8872b|4a6cff44-d7c3-410f-afe0-a11ae0e8872b|2020-09-06|2020-11-14|2020-09-06|2020-12-14|2020-09-06|2020-12-14|||Northwood|2020-10-28|72|YEARS|F|BLACK OR AFRICAN AMERICAN|NOT REPORTED|P-5-10|Placebo - 5mg - 10mg|P-5-10|Placebo - 5mg - 10mg|[?]|UMI|2020-10-27|52|
e|DM|35fd3f79-60b3-4101-ab79-952ca0e8f1ce|35fd3f79-60b3-4101-ab79-952ca0e8f1ce|2020-06-01|2020-06-15|2020-06-01|2020-09-08|2020-06-01|2020-09-08|||Joy|2020-06-26|36|YEARS|M|AMERICAN INDIAN OR ALASKA NATIVE|NOT REPORTED|P-5-10|Placebo - 5mg - 10mg|P-5-10|Placebo - 5mg - 10mg|[?]|UMI|2020-09-02|94|
e|DM|37610314-f803-4ffa-a584-ebfe09267a0d|37610314-f803-4ffa-a584-ebfe09267a0d|2020-06-21|2020-08-08|2020-06-21|2020-09-28|2020-06-21|2020-09-28|||Music|2020-09-17|30|YEARS|F|NOT REPORTED|UNKNOWN|5-10-P|5mg - 10mg- Placebo|5-10-P|5mg - 10mg- Placebo|[?]|UMI|2020-07-08|18|
e|DM|760ec5ce-3ae7-4268-9f76-b83085ad3754|760ec5ce-3ae7-4268-9f76-b83085ad3754|2020-09-15|2020-11-08|2020-09-15|2020-12-23|2020-09-15|2020-12-23|||Highland Terrace|2020-11-24|40|YEARS|F|UNKNOWN|HISPANIC OR LATINO|5-10-P|5mg - 10mg- Placebo|5-10-P|5mg - 10mg- Placebo|[?]|UMI|2020-11-19|66|
e|DM|13773a62-50b1-4b2a-a5c7-ec0e0245a97e|13773a62-50b1-4b2a-a5c7-ec0e0245a97e|2020-06-06|2020-07-09|2020-06-06|2020-09-13|2020-06-06|2020-09-13|||Batchtown|2020-08-30|73|YEARS|F|NATIVE HAWAIIAN OR OTHER PACIFIC ISLANDER|UNKNOWN|5-P-10|5mg - Placebo- 10mg|5-P-10|5mg - Placebo- 10mg|[?]|UMI|2020-08-31|87|
e|DM|d0a9940e-a75f-4fcc-8d0c-5a8dae7d9344|d0a9940e-a75f-4fcc-8d0c-5a8dae7d9344|2021-01-15|2021-02-25|2021-01-15|2021-04-24|2021-01-15|2021-04-24|||Little Zion (historical)|2021-04-21|53|YEARS|F|UNKNOWN|NOT HISPANIC OR LATINO|5-10-P|5mg - 10mg- Placebo|5-10-P|5mg - 10mg- Placebo|[?]|UMI|2021-02-28|45|
e|DM|8f0ff98a-fd19-4c9f-87ec-96200ced0f82|8f0ff98a-fd19-4c9f-87ec-96200ced0f82|2020-11-04|2020-11-25|2020-11-04|2021-02-11|2020-11-04|2021-02-11|||Stayman|2021-01-05|17|YEARS|F|WHITE|HISPANIC OR LATINO|P-5-10|Placebo - 5mg - 10mg|P-5-10|Placebo - 5mg - 10mg|[?]|UMI|2021-01-28|86|
e|DM|d7b41e15-6725-4433-8a35-72629e342b47|d7b41e15-6725-4433-8a35-72629e342b47|2020-09-05|2020-09-12|2020-09-05|2020-12-13|2020-09-05|2020-12-13|||Florida Plaza|2020-11-18|17|YEARS|M|BLACK OR AFRICAN AMERICAN|NOT REPORTED|5-P-10|5mg - Placebo- 10mg|5-P-10|5mg - Placebo- 10mg|[?]|UMI|2020-10-29|55|
e|DM|aeddc1ed-545c-405e-b1f7-08131961f5ff|aeddc1ed-545c-405e-b1f7-08131961f5ff|2020-10-06|2020-11-17|2020-10-06|2021-01-13|2020-10-06|2021-01-13|||Natchez Hills Estate|2021-01-01|80|YEARS|M|UNKNOWN|HISPANIC OR LATINO|5-P-10|5mg - Placebo- 10mg|5-P-10|5mg - Placebo- 10mg|[?]|UMI|2020-12-27|83|
e|DM|3effe272-6a68-4163-a4f3-bd269af6061c|3effe272-6a68-4163-a4f3-bd269af6061c|2021-01-06|2021-02-08|2021-01-06|2021-04-15|2021-01-06|2021-04-15|||Clementown Mills|2021-01-21|46|YEARS|F|AMERICAN INDIAN OR ALASKA NATIVE|NOT HISPANIC OR LATINO|5-P-10|5mg - Placebo- 10mg|5-P-10|5mg - Placebo- 10mg|[?]|UMI|2021-03-15|69|
e|DM|8153c765-a92a-4b0f-9ef3-6ca925337f54|8153c765-a92a-4b0f-9ef3-6ca925337f54|2020-09-20|2020-10-19|2020-09-20|2020-12-28|2020-09-20|2020-12-28|||Nevadum|2020-10-10|56|YEARS|F|UNKNOWN|NOT HISPANIC OR LATINO|5-10-P|5mg - 10mg- Placebo|5-10-P|5mg - 10mg- Placebo|[?]|UMI|2020-11-29|71|
e|DM|8d27cdcf-768e-4630-95b5-da554f6f3b56|8d27cdcf-768e-4630-95b5-da554f6f3b56|2020-10-21|2020-12-01|2020-10-21|2021-01-28|2020-10-21|2021-01-28|||Cleveland-A-Farm|2020-10-28|31|YEARS|F|WHITE|NOT HISPANIC OR LATINO|5-P-10|5mg - Placebo- 10mg|5-P-10|5mg - Placebo- 10mg|[?]|UMI|2020-11-23|34|
e|DM|5c2791ff-aaf6-413f-9827-6e97e2273388|5c2791ff-aaf6-413f-9827-6e97e2273388|2020-08-28|2020-11-19|2020-08-28|2020-12-05|2020-08-28|2020-12-05|||Calumet West|2020-10-23|62|YEARS|M|AMERICAN INDIAN OR ALASKA NATIVE|NOT HISPANIC OR LATINO|5-P-10|5mg - Placebo- 10mg|5-P-10|5mg - Placebo- 10mg|[?]|UMI|2020-11-11|76|
e|DM|b336d8c2-7bca-404e-aea3-5148d559ea99|b336d8c2-7bca-404e-aea3-5148d559ea99|2020-09-10|2020-11-26|2020-09-10|2020-12-18|2020-09-10|2020-12-18|||Westshore Estates South|2020-10-17|55|YEARS|M|NATIVE HAWAIIAN OR OTHER PACIFIC ISLANDER|NOT REPORTED|5-P-10|5mg - Placebo- 10mg|5-P-10|5mg - Placebo- 10mg|[?]|UMI|2020-10-23|44|
e|DM|702b2f8f-63b9-44c1-a46d-1a41bc837c32|702b2f8f-63b9-44c1-a46d-1a41bc837c32|2020-06-08|2020-06-10|2020-06-08|2020-09-15|2020-06-08|2020-09-15|||Mount Zion|2020-06-20|34|YEARS|M|BLACK OR AFRICAN AMERICAN|HISPANIC OR LATINO|5-10-P|5mg - 10mg- Placebo|5-10-P|5mg - 10mg- Placebo|[?]|UMI|2020-07-02|25|
e|DM|1261eee1-f073-4419-b0b7-28abd0ec1513|1261eee1-f073-4419-b0b7-28abd0ec1513|2020-09-22|2020-12-06|2020-09-22|2020-12-30|2020-09-22|2020-12-30|||Lake Grove (historical)|2020-11-28|13|YEARS|F|AMERICAN INDIAN OR ALASKA NATIVE|HISPANIC OR LATINO|5-P-10|5mg - Placebo- 10mg|5-P-10|5mg - Placebo- 10mg|[?]|UMI|2020-11-22|62|
e|DM|46eefdf3-c314-4e61-963c-ce7f48c636e5|46eefdf3-c314-4e61-963c-ce7f48c636e5|2020-12-20|2020-12-27|2020-12-20|2021-03-29|2020-12-20|2021-03-29|||Southport|2021-01-28|45|YEARS|F|WHITE|NOT REPORTED|5-P-10|5mg - Placebo- 10mg|5-P-10|5mg - Placebo- 10mg|[?]|UMI|2021-02-05|48|
e|DM|f632159b-8c91-4f0d-81cb-e5b9195588c9|f632159b-8c91-4f0d-81cb-e5b9195588c9|2021-01-03|2021-02-28|2021-01-03|2021-04-12|2021-01-03|2021-04-12|||Jacksonville|2021-04-09|47|YEARS|M|AMERICAN INDIAN OR ALASKA NATIVE|NOT HISPANIC OR LATINO|5-P-10|5mg - Placebo- 10mg|5-P-10|5mg - Placebo- 10mg|[?]|UMI|2021-04-01|89|
e|DM|898a9d2f-338b-41bf-8ac0-c4a025481349|898a9d2f-338b-41bf-8ac0-c4a025481349|2020-05-15|2020-06-22|2020-05-15|2020-08-22|2020-05-15|2020-08-22|2020-08-22|Y|Rock Creek|2020-07-12|16|YEARS|M|UNKNOWN|HISPANIC OR LATINO|5-P-10|5mg - Placebo- 10mg|5-P-10|5mg - Placebo- 10mg|[?]|UMI|2020-06-13|30|
e|DM|db3824aa-375d-4e40-a14b-af0e4460914e|db3824aa-375d-4e40-a14b-af0e4460914e|2020-05-11|2020-07-09|2020-05-11|2020-08-18|2020-05-11|2020-08-18|||Collinsville|2020-07-10|65|YEARS|M|BLACK OR AFRICAN AMERICAN|NOT HISPANIC OR LATINO|5-P-10|5mg - Placebo- 10mg|5-P-10|5mg - Placebo- 10mg|[?]|UMI|2020-08-08|90|
e|DM|0ea6be64-32f8-4e10-b993-687ea200e4e9|0ea6be64-32f8-4e10-b993-687ea200e4e9|2021-01-19|2021-04-01|2021-01-19|2021-04-28|2021-01-19|2021-04-28|||Sale City|2021-04-19|44|YEARS|F|UNKNOWN|HISPANIC OR LATINO|5-P-10|5mg - Placebo- 10mg|5-P-10|5mg - Placebo- 10mg|[?]|UMI|2021-04-12|84|
e|DM|18504c4e-41c8-4c1a-a479-d179ccd318e3|18504c4e-41c8-4c1a-a479-d179ccd318e3|2020-06-13|2020-08-11|2020-06-13|2020-09-20|2020-06-13|2020-09-20|||Alvin|2020-07-09|67|YEARS|F|UNKNOWN|UNKNOWN|P-5-10|Placebo - 5mg - 10mg|P-5-10|Placebo - 5mg - 10mg|[?]|UMI|2020-06-16|4|
e|DM|7f211d8a-7478-4082-8d95-4ace9ceee919|7f211d8a-7478-4082-8d95-4ace9ceee919|2020-08-10|2020-09-28|2020-08-10|2020-11-17|2020-08-10|2020-11-17|||Hatcher|2020-10-03|33|YEARS|F|BLACK OR AFRICAN AMERICAN|UNKNOWN|5-P-10|5mg - Placebo- 10mg|5-P-10|5mg - Placebo- 10mg|[?]|UMI|2020-09-22|44|
e|DM|0739e140-bcac-4df9-9629-bd0748d1fdd6|0739e140-bcac-4df9-9629-bd0748d1fdd6|2020-09-30|2020-12-11|2020-09-30|2021-01-07|2020-09-30|2021-01-07|||Rexton|2020-11-25|50|YEARS|M|ASIAN|NOT HISPANIC OR LATINO|5-P-10|5mg - Placebo- 10mg|5-P-10|5mg - Placebo- 10mg|[?]|UMI|2020-10-21|22|
e|DM|4d44daf5-8ebc-4d4f-aa33-e8ab9f5442e0|4d44daf5-8ebc-4d4f-aa33-e8ab9f5442e0|2020-12-12|2021-02-08|2020-12-12|2021-03-21|2020-12-12|2021-03-21|||Town Point Estates|2020-12-31|53|YEARS|F|WHITE|NOT HISPANIC OR LATINO|P-5-10|Placebo - 5mg - 10mg|P-5-10|Placebo - 5mg - 10mg|[?]|UMI|2021-01-18|38|
e|DM|f24b931a-2cdd-4432-a1dd-69c7286f4690|f24b931a-2cdd-4432-a1dd-69c7286f4690|2020-05-06|2020-07-29|2020-05-06|2020-08-13|2020-05-06|2020-08-13|2020-08-13|Y|Canterbury|2020-07-17|19|YEARS|M|NOT REPORTED|HISPANIC OR LATINO|5-P-10|5mg - Placebo- 10mg|5-P-10|5mg - Placebo- 10mg|[?]|UMI|2020-05-24|19|
e|DM|d394120d-7630-4fcf-a336-482599d88296|d394120d-7630-4fcf-a336-482599d88296|2021-01-13|2021-01-28|2021-01-13|2021-04-22|2021-01-13|2021-04-22|||Truly|2021-04-14|50|YEARS|F|UNKNOWN|NOT HISPANIC OR LATINO|P-5-10|Placebo - 5mg - 10mg|P-5-10|Placebo - 5mg - 10mg|[?]|UMI|2021-02-23|42|
e|DM|bcda1d95-58ed-4991-9395-0b98efc1d9a1|bcda1d95-58ed-4991-9395-0b98efc1d9a1|2020-10-12|2020-11-09|2020-10-12|2021-01-19|2020-10-12|2021-01-19|||Acklocknayke (historical)|2020-12-25|40|YEARS|F|NATIVE HAWAIIAN OR OTHER PACIFIC ISLANDER|NOT REPORTED|P-5-10|Placebo - 5mg - 10mg|P-5-10|Placebo - 5mg - 10mg|[?]|UMI|2020-10-17|6|
e|DM|6999bd5c-0790-42b8-a4ff-e538776b0fb0|6999bd5c-0790-42b8-a4ff-e538776b0fb0|2020-08-06|2020-09-18|2020-08-06|2020-11-13|2020-08-06|2020-11-13|||Buena Vista|2020-10-18|63|YEARS|F|AMERICAN INDIAN OR ALASKA NATIVE|UNKNOWN|5-10-P|5mg - 10mg- Placebo|5-10-P|5mg - 10mg- Placebo|[?]|UMI|2020-08-11|6|
e|DM|5934d59a-b0f4-4377-a3c3-00d434d3ddfd|5934d59a-b0f4-4377-a3c3-00d434d3ddfd|2020-12-12|2021-02-12|2020-12-12|2021-03-21|2020-12-12|2021-03-21|||Northview|2020-12-18|55|YEARS|F|BLACK OR AFRICAN AMERICAN|NOT REPORTED|5-10-P|5mg - 10mg- Placebo|5-10-P|5mg - 10mg- Placebo|[?]|UMI|2021-03-16|95|
e|DM|59b0fee3-2294-448e-9837-38bd6b5c794b|59b0fee3-2294-448e-9837-38bd6b5c794b|2020-12-23|2021-01-02|2020-12-23|2021-04-01|2020-12-23|2021-04-01|||Belandville|2021-02-06|22|YEARS|F|NOT REPORTED|NOT HISPANIC OR LATINO|P-5-10|Placebo - 5mg - 10mg|P-5-10|Placebo - 5mg - 10mg|[?]|UMI|2021-02-03|43|
e|DM|d9bdb1e3-4630-423f-be01-4873bce30422|d9bdb1e3-4630-423f-be01-4873bce30422|2020-12-13|2021-03-12|2020-12-13|2021-03-22|2020-12-13|2021-03-22|||Hacienda Carmelita|2021-01-14|16|YEARS|F|UNKNOWN|NOT REPORTED|5-10-P|5mg - 10mg- Placebo|5-10-P|5mg - 10mg- Placebo|[?]|UMI|2021-02-22|72|
e|DM|7a2e5851-3c3e-46b4-876f-7dd6c8005f9a|7a2e5851-3c3e-46b4-876f-7dd6c8005f9a|2020-06-16|2020-09-13|2020-06-16|2020-09-23|2020-06-16|2020-09-23|||Owensville|2020-06-25|61|YEARS|M|BLACK OR AFRICAN AMERICAN|HISPANIC OR LATINO|P-5-10|Placebo - 5mg - 10mg|P-5-10|Placebo - 5mg - 10mg|[?]|UMI|2020-08-17|63|
e|DM|5546d86b-6a12-4b5f-b66f-8d85ba4691e6|5546d86b-6a12-4b5f-b66f-8d85ba4691e6|2020-07-26|2020-10-05|2020-07-26|2020-11-02|2020-07-26|2020-11-02|2020-11-02|Y|Eastern Park|2020-09-20|75|YEARS|M|UNKNOWN|HISPANIC OR LATINO|5-10-P|5mg - 10mg- Placebo|5-10-P|5mg - 10mg- Placebo|[?]|UMI|2020-10-11|78|
e|DM|933c3a61-59a0-4cfb-ae17-45bc48229323|933c3a61-59a0-4cfb-ae17-45bc48229323|2020-08-31|2020-10-28|2020-08-31|2020-12-08|2020-08-31|2020-12-08|||Parkdale|2020-09-19|70|YEARS|F|ASIAN|UNKNOWN|5-10-P|5mg - 10mg- Placebo|5-10-P|5mg - 10mg- Placebo|[?]|UMI|2020-09-10|11|
e|DM|58d871e3-ef99-48da-ab12-fdfdc2e01da6|58d871e3-ef99-48da-ab12-fdfdc2e01da6|2020-10-17|2020-11-27|2020-10-17|2021-01-24|2020-10-17|2021-01-24|||Mandley (historical)|2021-01-14|53|YEARS|M|NATIVE HAWAIIAN OR OTHER PACIFIC ISLANDER|HISPANIC OR LATINO|5-P-10|5mg - Placebo- 10mg|5-P-10|5mg - Placebo- 10mg|[?]|UMI|2020-12-29|74|
e|DM|ac66129e-3244-4cd8-a235-43b4bfb7dace|ac66129e-3244-4cd8-a235-43b4bfb7dace|2020-10-20|2021-01-09|2020-10-20|2021-01-27|2020-10-20|2021-01-27|||New Hamilton|2020-12-06|44|YEARS|F|AMERICAN INDIAN OR ALASKA NATIVE|NOT HISPANIC OR LATINO|5-P-10|5mg - Placebo- 10mg|5-P-10|5mg - Placebo- 10mg|[?]|UMI|2021-01-21|94|
e|DM|2f2297c4-ed0a-45c2-bbd9-13c945abb67b|2f2297c4-ed0a-45c2-bbd9-13c945abb67b|2020-08-24|2020-11-20|2020-08-24|2020-12-01|2020-08-24|2020-12-01|||Jellison City (historical)|2020-11-26|26|YEARS|M|BLACK OR AFRICAN AMERICAN|UNKNOWN|P-5-10|Placebo - 5mg - 10mg|P-5-10|Placebo - 5mg - 10mg|[?]|UMI|2020-10-20|58|
e|DM|3d59a754-10bb-4847-93ea-433b43265a2f|3d59a754-10bb-4847-93ea-433b43265a2f|2020-10-15|2020-10-16|2020-10-15|2021-01-22|2020-10-15|2021-01-22|||Tipton|2020-10-26|57|YEARS|M|WHITE|NOT HISPANIC OR LATINO|P-5-10|Placebo - 5mg - 10mg|P-5-10|Placebo - 5mg - 10mg|[?]|UMI|2020-12-21|68|
e|DM|0d3d37a5-2215-4b28-b6f7-7256abcdd97e|0d3d37a5-2215-4b28-b6f7-7256abcdd97e|2021-01-11|2021-03-28|2021-01-11|2021-04-20|2021-01-11|2021-04-20|||Volland|2021-03-07|29|YEARS|M|UNKNOWN|NOT REPORTED|5-P-10|5mg - Placebo- 10mg|5-P-10|5mg - Placebo- 10mg|[?]|UMI|2021-03-18|67|
e|DM|89209495-c485-4eb7-b858-8dc5490d2b64|89209495-c485-4eb7-b858-8dc5490d2b64|2020-08-29|2020-09-17|2020-08-29|2020-12-06|2020-08-29|2020-12-06|||Equestrian Village|2020-10-04|30|YEARS|F|WHITE|NOT REPORTED|P-5-10|Placebo - 5mg - 10mg|P-5-10|Placebo - 5mg - 10mg|[?]|UMI|2020-10-20|53|
e|DM|d80522bb-f146-4270-a6e1-326fde50d9ca|d80522bb-f146-4270-a6e1-326fde50d9ca|2020-12-22|2021-02-17|2020-12-22|2021-03-31|2020-12-22|2021-03-31|||Hayward|2021-02-28|21|YEARS|M|AMERICAN INDIAN OR ALASKA NATIVE|NOT REPORTED|5-10-P|5mg - 10mg- Placebo|5-10-P|5mg - 10mg- Placebo|[?]|UMI|2021-01-28|38|
e|DM|3982a462-95f6-4e71-93e5-9df777770067|3982a462-95f6-4e71-93e5-9df777770067|2020-12-16|2021-02-06|2020-12-16|2021-03-25|2020-12-16|2021-03-25|||Whitney|2021-01-07|75|YEARS|F|ASIAN|NOT REPORTED|5-P-10|5mg - Placebo- 10mg|5-P-10|5mg - Placebo- 10mg|[?]|UMI|2021-02-02|49|
e|DM|f3a3a6ca-2344-4cee-a6a5-59beee9304df|f3a3a6ca-2344-4cee-a6a5-59beee9304df|2020-10-31|2020-12-22|2020-10-31|2021-02-07|2020-10-31|2021-02-07|||San Luis Apalache (historical)|2021-01-20|67|YEARS|F|BLACK OR AFRICAN AMERICAN|UNKNOWN|5-P-10|5mg - Placebo- 10mg|5-P-10|5mg - Placebo- 10mg|[?]|UMI|2020-12-28|59|
e|DM|175cfd82-a6fe-463b-81e5-07ae9e1253db|175cfd82-a6fe-463b-81e5-07ae9e1253db|2020-05-17|2020-07-24|2020-05-17|2020-08-24|2020-05-17|2020-08-24|||Boiling Spring Lakes|2020-08-01|38|YEARS|F|UNKNOWN|HISPANIC OR LATINO|5-10-P|5mg - 10mg- Placebo|5-10-P|5mg - 10mg- Placebo|[?]|UMI|2020-07-02|47|
e|DM|e19b469c-40d5-4506-8233-a86bebde880d|e19b469c-40d5-4506-8233-a86bebde880d|2021-01-13|2021-01-20|2021-01-13|2021-04-22|2021-01-13|2021-04-22|||Sickler Hill|2021-04-05|51|YEARS|M|UNKNOWN|NOT REPORTED|5-P-10|5mg - Placebo- 10mg|5-P-10|5mg - Placebo- 10mg|[?]|UMI|2021-04-05|83|
e|DM|f280a4a5-9826-4d77-adf1-992284cb3314|f280a4a5-9826-4d77-adf1-992284cb3314|2020-12-10|2021-01-03|2020-12-10|2021-03-19|2020-12-10|2021-03-19|||Winthrop|2020-12-12|78|YEARS|F|ASIAN|NOT REPORTED|5-P-10|5mg - Placebo- 10mg|5-P-10|5mg - Placebo- 10mg|[?]|UMI|2021-01-02|24|
e|DM|82840929-7800-4254-b60a-8af4786664f6|82840929-7800-4254-b60a-8af4786664f6|2020-05-26|2020-06-13|2020-05-26|2020-09-02|2020-05-26|2020-09-02|2020-09-02|Y|East Wells|2020-08-06|71|YEARS|F|AMERICAN INDIAN OR ALASKA NATIVE|HISPANIC OR LATINO|P-5-10|Placebo - 5mg - 10mg|P-5-10|Placebo - 5mg - 10mg|[?]|UMI|2020-08-20|87|
e|DM|dae25bdb-38fd-4852-9a9a-7627368e9497|dae25bdb-38fd-4852-9a9a-7627368e9497|2020-08-24|2020-10-29|2020-08-24|2020-12-01|2020-08-24|2020-12-01|||Springside Park|2020-11-01|22|YEARS|M|ASIAN|UNKNOWN|5-P-10|5mg - Placebo- 10mg|5-P-10|5mg - Placebo- 10mg|[?]|UMI|2020-09-22|30|
e|DM|9e009737-cd77-4b96-a4af-e9731ef7e9d0|9e009737-cd77-4b96-a4af-e9731ef7e9d0|2020-09-26|2020-12-13|2020-09-26|2021-01-03|2020-09-26|2021-01-03|||Star Hills Mobile Home Park|2020-11-23|22|YEARS|F|ASIAN|NOT REPORTED|5-P-10|5mg - Placebo- 10mg|5-P-10|5mg - Placebo- 10mg|[?]|UMI|2020-10-16|21|
e|DM|e7468d01-71b3-47c4-9715-62fe143364cb|e7468d01-71b3-47c4-9715-62fe143364cb|2020-10-06|2020-11-05|2020-10-06|2021-01-13|2020-10-06|2021-01-13|||Winslow Heights|2020-11-25|51|YEARS|M|NOT REPORTED|HISPANIC OR LATINO|5-10-P|5mg - 10mg- Placebo|5-10-P|5mg - 10mg- Placebo|[?]|UMI|2020-11-12|38|
e|DM|6a021859-1b18-4eb5-9548-0e32c0c1edf7|6a021859-1b18-4eb5-9548-0e32c0c1edf7|2020-05-09|2020-06-12|2020-05-09|2020-08-16|2020-05-09|2020-08-16|||Hillister|2020-07-21|48|YEARS|F|UNKNOWN|UNKNOWN|P-5-10|Placebo - 5mg - 10mg|P-5-10|Placebo - 5mg - 10mg|[?]|UMI|2020-05-24|16|
e|DM|eb409ec5-4c02-41c8-a11f-03d990818c2a|eb409ec5-4c02-41c8-a11f-03d990818c2a|2020-11-30|2021-02-05|2020-11-30|2021-03-09|2020-11-30|2021-03-09|||Farris Springs|2021-03-06|71|YEARS|M|BLACK OR AFRICAN AMERICAN|NOT REPORTED|5-P-10|5mg - Placebo- 10mg|5-P-10|5mg - Placebo- 10mg|[?]|UMI|2021-03-01|92|
e|DM|2178f542-809d-4306-84e4-26d3b3b370b0|2178f542-809d-4306-84e4-26d3b3b370b0|2020-10-28|2020-11-21|2020-10-28|2021-02-04|2020-10-28|2021-02-04|||Hillhouse Addition|2020-11-10|49|YEARS|F|BLACK OR AFRICAN AMERICAN|NOT REPORTED|P-5-10|Placebo - 5mg - 10mg|P-5-10|Placebo - 5mg - 10mg|[?]|UMI|2020-12-08|42|
e|DM|da7423fb-461e-43a6-bcb9-aa87051bda0a|da7423fb-461e-43a6-bcb9-aa87051bda0a|2020-09-25|2020-10-27|2020-09-25|2021-01-02|2020-09-25|2021-01-02|||Limestreet|2020-11-01|55|YEARS|F|AMERICAN INDIAN OR ALASKA NATIVE|NOT REPORTED|5-10-P|5mg - 10mg- Placebo|5-10-P|5mg - 10mg- Placebo|[?]|UMI|2020-10-02|8|
e|DM|40e4c69f-6115-4f0e-8555-45b12b222801|40e4c69f-6115-4f0e-8555-45b12b222801|2021-01-21|2021-04-10|2021-01-21|2021-04-30|2021-01-21|2021-04-30|||South Loudonville (historical)|2021-04-25|62|YEARS|M|BLACK OR AFRICAN AMERICAN|HISPANIC OR LATINO|5-10-P|5mg - 10mg- Placebo|5-10-P|5mg - 10mg- Placebo|[?]|UMI|2021-02-02|13|
e|DM|1307d7f6-acb6-4096-a907-08345548a82b|1307d7f6-acb6-4096-a907-08345548a82b|2020-05-19|2020-08-09|2020-05-19|2020-08-26|2020-05-19|2020-08-26|||Lukeville|2020-06-27|53|YEARS|F|AMERICAN INDIAN OR ALASKA NATIVE|UNKNOWN|5-P-10|5mg - Placebo- 10mg|5-P-10|5mg - Placebo- 10mg|[?]|UMI|2020-08-15|89|
e|DM|bac23835-1120-43b2-9d99-694bef97f44b|bac23835-1120-43b2-9d99-694bef97f44b|2020-05-12|2020-07-07|2020-05-12|2020-08-19|2020-05-12|2020-08-19|||Drewrys Bluff|2020-06-13|29|YEARS|M|BLACK OR AFRICAN AMERICAN|UNKNOWN|5-P-10|5mg - Placebo- 10mg|5-P-10|5mg - Placebo- 10mg|[?]|UMI|2020-06-25|45|
e|DM|8cf8f8a1-5c55-4f82-b6bc-109acdf5b514|8cf8f8a1-5c55-4f82-b6bc-109acdf5b514|2020-09-15|2020-11-27|2020-09-15|2020-12-23|2020-09-15|2020-12-23|||Arrow Pointe Estates|2020-10-22|51|YEARS|M|AMERICAN INDIAN OR ALASKA NATIVE|NOT HISPANIC OR LATINO|5-10-P|5mg - 10mg- Placebo|5-10-P|5mg - 10mg- Placebo|[?]|UMI|2020-12-03|80|
e|DM|14cd64f5-f3c8-47a4-b40e-9c5090890870|14cd64f5-f3c8-47a4-b40e-9c5090890870|2020-09-15|2020-10-12|2020-09-15|2020-12-23|2020-09-15|2020-12-23|||Shorecrest Pointe|2020-10-30|52|YEARS|F|AMERICAN INDIAN OR ALASKA NATIVE|HISPANIC OR LATINO|5-10-P|5mg - 10mg- Placebo|5-10-P|5mg - 10mg- Placebo|[?]|UMI|2020-11-03|50|
e|DM|ca4a06be-5e6a-4220-9854-e5fe02b384af|ca4a06be-5e6a-4220-9854-e5fe02b384af|2020-09-24|2020-10-10|2020-09-24|2021-01-01|2020-09-24|2021-01-01|||Stamford|2020-11-01|55|YEARS|M|NOT REPORTED|NOT HISPANIC OR LATINO|P-5-10|Placebo - 5mg - 10mg|P-5-10|Placebo - 5mg - 10mg|[?]|UMI|2020-11-07|45|
e|DM|55504c69-a659-402b-a0cb-95ab4e08c086|55504c69-a659-402b-a0cb-95ab4e08c086|2021-01-05|2021-02-18|2021-01-05|2021-04-14|2021-01-05|2021-04-14|||Colonial Beach|2021-01-25|63|YEARS|M|NOT REPORTED|UNKNOWN|5-P-10|5mg - Placebo- 10mg|5-P-10|5mg - Placebo- 10mg|[?]|UMI|2021-03-02|57|
e|DM|bffa468a-a27b-4e87-a60d-b5787a03c6f6|bffa468a-a27b-4e87-a60d-b5787a03c6f6|2020-11-21|2021-02-22|2020-11-21|2021-02-28|2020-11-21|2021-02-28|||Tolovana|2020-12-05|27|YEARS|F|UNKNOWN|NOT REPORTED|P-5-10|Placebo - 5mg - 10mg|P-5-10|Placebo - 5mg - 10mg|[?]|UMI|2021-01-28|69|
e|DM|2e25aa76-914f-41e3-82ce-7c56ba2f6271|2e25aa76-914f-41e3-82ce-7c56ba2f6271|2020-12-02|2020-12-14|2020-12-02|2021-03-11|2020-12-02|2021-03-11|||Watson|2021-02-15|22|YEARS|F|NOT REPORTED|HISPANIC OR LATINO|5-10-P|5mg - 10mg- Placebo|5-10-P|5mg - 10mg- Placebo|[?]|UMI|2021-01-13|43|
e|DM|12c24fff-080b-4889-a455-ff55d5c0536c|12c24fff-080b-4889-a455-ff55d5c0536c|2021-01-18|2021-02-01|2021-01-18|2021-04-27|2021-01-18|2021-04-27|||Black Mountain|2021-02-19|45|YEARS|F|WHITE|NOT HISPANIC OR LATINO|P-5-10|Placebo - 5mg - 10mg|P-5-10|Placebo - 5mg - 10mg|[?]|UMI|2021-04-16|89|
e|DM|aecfe062-4e0d-4c91-8b67-1f304c5765ae|aecfe062-4e0d-4c91-8b67-1f304c5765ae|2021-01-12|2021-02-03|2021-01-12|2021-04-21|2021-01-12|2021-04-21|||Country Lake|2021-03-05|55|YEARS|F|UNKNOWN|HISPANIC OR LATINO|P-5-10|Placebo - 5mg - 10mg|P-5-10|Placebo - 5mg - 10mg|[?]|UMI|2021-03-15|63|
e|DM|05a142dc-a779-44cb-ab2e-f961676a3940|05a142dc-a779-44cb-ab2e-f961676a3940|2020-11-09|2021-01-24|2020-11-09|2021-02-16|2020-11-09|2021-02-16|||Thompsonville|2020-12-03|72|YEARS|F|UNKNOWN|NOT REPORTED|5-P-10|5mg - Placebo- 10mg|5-P-10|5mg - Placebo- 10mg|[?]|UMI|2021-01-15|68|
e|DM|498524c5-08c4-41a4-af81-876ab2452f64|498524c5-08c4-41a4-af81-876ab2452f64|2020-11-30|2020-12-06|2020-11-30|2021-03-09|2020-11-30|2021-03-09|||Sargeant|2021-01-15|28|YEARS|M|NOT REPORTED|NOT HISPANIC OR LATINO|P-5-10|Placebo - 5mg - 10mg|P-5-10|Placebo - 5mg - 10mg|[?]|UMI|2021-01-08|40|
e|DM|93490930-01cd-470e-81a3-bcd7a140ccc1|93490930-01cd-470e-81a3-bcd7a140ccc1|2020-11-08|2021-01-22|2020-11-08|2021-02-15|2020-11-08|2021-02-15|||Chardon|2020-11-20|53|YEARS|F|BLACK OR AFRICAN AMERICAN|NOT REPORTED|5-P-10|5mg - Placebo- 10mg|5-P-10|5mg - Placebo- 10mg|[?]|UMI|2020-12-28|51|
e|DM|fd588c97-c57f-432f-81a0-a116a017c5dd|fd588c97-c57f-432f-81a0-a116a017c5dd|2020-05-25|2020-06-11|2020-05-25|2020-09-01|2020-05-25|2020-09-01|||Islandia|2020-08-02|12|YEARS|F|WHITE|NOT REPORTED|5-P-10|5mg - Placebo- 10mg|5-P-10|5mg - Placebo- 10mg|[?]|UMI|2020-08-18|86|
e|DM|18028efc-33b9-4741-a47a-8fdac0a90e6e|18028efc-33b9-4741-a47a-8fdac0a90e6e|2020-12-13|2021-02-25|2020-12-13|2021-03-22|2020-12-13|2021-03-22|||Earl Hall Mobile Home Park|2021-01-29|33|YEARS|F|WHITE|NOT HISPANIC OR LATINO|5-P-10|5mg - Placebo- 10mg|5-P-10|5mg - Placebo- 10mg|[?]|UMI|2020-12-19|7|
e|DM|ec47a40e-dd7f-47ee-b571-d91ce72c1cf1|ec47a40e-dd7f-47ee-b571-d91ce72c1cf1|2020-05-26|2020-06-11|2020-05-26|2020-09-02|2020-05-26|2020-09-02|||Heathers Run|2020-06-19|14|YEARS|M|WHITE|UNKNOWN|P-5-10|Placebo - 5mg - 10mg|P-5-10|Placebo - 5mg - 10mg|[?]|UMI|2020-07-31|67|
e|DM|08fccce4-64bf-431e-81b0-a96566e77df6|08fccce4-64bf-431e-81b0-a96566e77df6|2021-01-11|2021-02-09|2021-01-11|2021-04-20|2021-01-11|2021-04-20|||Westover|2021-01-18|73|YEARS|F|ASIAN|NOT REPORTED|P-5-10|Placebo - 5mg - 10mg|P-5-10|Placebo - 5mg - 10mg|[?]|UMI|2021-01-24|14|
e|DM|0354fab5-5636-4504-8345-af060ad4c90c|0354fab5-5636-4504-8345-af060ad4c90c|2021-01-14|2021-02-27|2021-01-14|2021-04-23|2021-01-14|2021-04-23|||Lizard|2021-02-09|76|YEARS|M|AMERICAN INDIAN OR ALASKA NATIVE|HISPANIC OR LATINO|5-P-10|5mg - Placebo- 10mg|5-P-10|5mg - Placebo- 10mg|[?]|UMI|2021-02-21|39|
e|DM|f4f1a53a-d621-4f75-b44e-96b959aed03d|f4f1a53a-d621-4f75-b44e-96b959aed03d|2020-12-31|2021-01-14|2020-12-31|2021-04-09|2020-12-31|2021-04-09|||Blue Mountain|2021-02-21|26|YEARS|M|WHITE|NOT REPORTED|5-10-P|5mg - 10mg- Placebo|5-10-P|5mg - 10mg- Placebo|[?]|UMI|2021-03-22|82|
e|DM|ed392c1a-0167-4ee9-b208-8b0c8d314bb4|ed392c1a-0167-4ee9-b208-8b0c8d314bb4|2020-09-22|2020-12-21|2020-09-22|2020-12-30|2020-09-22|2020-12-30|||Pishon Ferry|2020-10-25|38|YEARS|M|NOT REPORTED|NOT REPORTED|5-P-10|5mg - Placebo- 10mg|5-P-10|5mg - Placebo- 10mg|[?]|UMI|2020-10-07|16|
e|DM|679423a4-92cf-4a93-8277-282f9b43f2ed|679423a4-92cf-4a93-8277-282f9b43f2ed|2020-07-25|2020-10-05|2020-07-25|2020-11-01|2020-07-25|2020-11-01|||Laden|2020-08-28|26|YEARS|M|UNKNOWN|UNKNOWN|P-5-10|Placebo - 5mg - 10mg|P-5-10|Placebo - 5mg - 10mg|[?]|UMI|2020-10-06|74|
e|DM|fb686cda-337b-46aa-b67b-790414201d9a|fb686cda-337b-46aa-b67b-790414201d9a|2020-05-17|2020-07-23|2020-05-17|2020-08-24|2020-05-17|2020-08-24|||Laurel Springs Crossroads|2020-05-18|13|YEARS|M|AMERICAN INDIAN OR ALASKA NATIVE|HISPANIC OR LATINO|5-10-P|5mg - 10mg- Placebo|5-10-P|5mg - 10mg- Placebo|[?]|UMI|2020-08-17|93|
e|DM|98d3c31c-8b79-4d8a-a39e-21b0a3fa653b|98d3c31c-8b79-4d8a-a39e-21b0a3fa653b|2020-09-26|2020-09-29|2020-09-26|2021-01-03|2020-09-26|2021-01-03|||Rochester Junction|2020-10-14|16|YEARS|F|UNKNOWN|HISPANIC OR LATINO|P-5-10|Placebo - 5mg - 10mg|P-5-10|Placebo - 5mg - 10mg|[?]|UMI|2020-11-27|63|
e|DM|92d7a180-9353-41f8-93e2-ebcee32a1c63|92d7a180-9353-41f8-93e2-ebcee32a1c63|2020-11-27|2021-01-24|2020-11-27|2021-03-06|2020-11-27|2021-03-06|||Hereford|2020-12-14|21|YEARS|F|AMERICAN INDIAN OR ALASKA NATIVE|HISPANIC OR LATINO|5-10-P|5mg - 10mg- Placebo|5-10-P|5mg - 10mg- Placebo|[?]|UMI|2021-02-23|89|
e|DM|5da18fbc-1274-4cb3-bb6b-b57872b9815b|5da18fbc-1274-4cb3-bb6b-b57872b9815b|2020-10-08|2020-11-02|2020-10-08|2021-01-15|2020-10-08|2021-01-15|||Rockquarry (historical)|2020-12-02|39|YEARS|M|NATIVE HAWAIIAN OR OTHER PACIFIC ISLANDER|UNKNOWN|5-P-10|5mg - Placebo- 10mg|5-P-10|5mg - Placebo- 10mg|[?]|UMI|2020-10-17|10|
e|DM|aca1ac29-8b75-4362-a3fd-f42d77f9ffc0|aca1ac29-8b75-4362-a3fd-f42d77f9ffc0|2020-11-12|2020-11-19|2020-11-12|2021-02-19|2020-11-12|2021-02-19|||Honey Fork|2020-11-24|39|YEARS|F|BLACK OR AFRICAN AMERICAN|NOT HISPANIC OR LATINO|5-10-P|5mg - 10mg- Placebo|5-10-P|5mg - 10mg- Placebo|[?]|UMI|2020-12-24|43|
e|DM|4a195822-d646-4b22-a3b9-f6642442474d|4a195822-d646-4b22-a3b9-f6642442474d|2020-07-16|2020-10-12|2020-07-16|2020-10-23|2020-07-16|2020-10-23|||Sumterville|2020-09-15|18|YEARS|F|BLACK OR AFRICAN AMERICAN|HISPANIC OR LATINO|P-5-10|Placebo - 5mg - 10mg|P-5-10|Placebo - 5mg - 10mg|[?]|UMI|2020-08-22|38|
e|DM|515808c1-fda7-43bb-91dc-28e2d4e308cd|515808c1-fda7-43bb-91dc-28e2d4e308cd|2020-08-29|2020-11-03|2020-08-29|2020-12-06|2020-08-29|2020-12-06|||Coleman|2020-11-04|62|YEARS|F|AMERICAN INDIAN OR ALASKA NATIVE|NOT HISPANIC OR LATINO|5-P-10|5mg - Placebo- 10mg|5-P-10|5mg - Placebo- 10mg|[?]|UMI|2020-10-28|61|
e|DM|18461665-388d-403b-90e4-2b42fcb4a01a|18461665-388d-403b-90e4-2b42fcb4a01a|2020-09-24|2020-10-04|2020-09-24|2021-01-01|2020-09-24|2021-01-01|||Chesterfield Court House|2020-11-03|32|YEARS|F|NOT REPORTED|NOT REPORTED|5-10-P|5mg - 10mg- Placebo|5-10-P|5mg - 10mg- Placebo|[?]|UMI|2020-12-10|78|
e|DM|c3d2c2f3-6f3e-4671-b17b-47e6809bcca0|c3d2c2f3-6f3e-4671-b17b-47e6809bcca0|2020-08-05|2020-10-11|2020-08-05|2020-11-12|2020-08-05|2020-11-12|||West Ridge|2020-08-09|46|YEARS|M|NATIVE HAWAIIAN OR OTHER PACIFIC ISLANDER|HISPANIC OR LATINO|5-P-10|5mg - Placebo- 10mg|5-P-10|5mg - Placebo- 10mg|[?]|UMI|2020-09-02|29|
e|DM|e3ce1661-1b72-4835-88d1-5a6d3655b674|e3ce1661-1b72-4835-88d1-5a6d3655b674|2020-08-03|2020-09-30|2020-08-03|2020-11-10|2020-08-03|2020-11-10|||Urich|2020-08-28|31|YEARS|M|AMERICAN INDIAN OR ALASKA NATIVE|UNKNOWN|5-10-P|5mg - 10mg- Placebo|5-10-P|5mg - 10mg- Placebo|[?]|UMI|2020-10-21|80|
e|DM|240844e9-3dda-438e-81b2-8f6aa4e0427e|240844e9-3dda-438e-81b2-8f6aa4e0427e|2020-11-30|2021-02-09|2020-11-30|2021-03-09|2020-11-30|2021-03-09|||Moores Corners|2020-12-29|22|YEARS|M|NOT REPORTED|HISPANIC OR LATINO|5-P-10|5mg - Placebo- 10mg|5-P-10|5mg - Placebo- 10mg|[?]|UMI|2021-01-27|59|
e|DM|fccf5c5d-deb6-4f13-a485-afcda3556578|fccf5c5d-deb6-4f13-a485-afcda3556578|2020-07-26|2020-08-29|2020-07-26|2020-11-02|2020-07-26|2020-11-02|||El Cinco|2020-10-08|30|YEARS|F|NOT REPORTED|HISPANIC OR LATINO|P-5-10|Placebo - 5mg - 10mg|P-5-10|Placebo - 5mg - 10mg|[?]|UMI|2020-10-05|72|
e|DM|94620ed0-1ae8-4fa5-a629-9210860b0be9|94620ed0-1ae8-4fa5-a629-9210860b0be9|2020-07-26|2020-10-28|2020-07-26|2020-11-02|2020-07-26|2020-11-02|||Lagos de Norte|2020-09-06|80|YEARS|F|WHITE|UNKNOWN|P-5-10|Placebo - 5mg - 10mg|P-5-10|Placebo - 5mg - 10mg|[?]|UMI|2020-10-15|82|
e|DM|9c3b6912-19be-435c-87fc-781a08efb847|9c3b6912-19be-435c-87fc-781a08efb847|2021-01-13|2021-03-15|2021-01-13|2021-04-22|2021-01-13|2021-04-22|||Homestead|2021-04-12|12|YEARS|F|AMERICAN INDIAN OR ALASKA NATIVE|UNKNOWN|5-10-P|5mg - 10mg- Placebo|5-10-P|5mg - 10mg- Placebo|[?]|UMI|2021-02-15|34|
e|DM|171a6d85-ba2e-45da-b31b-01651b26e890|171a6d85-ba2e-45da-b31b-01651b26e890|2020-07-24|2020-09-20|2020-07-24|2020-10-31|2020-07-24|2020-10-31|||Broadview|2020-09-10|51|YEARS|F|UNKNOWN|NOT HISPANIC OR LATINO|5-P-10|5mg - Placebo- 10mg|5-P-10|5mg - Placebo- 10mg|[?]|UMI|2020-08-23|31|
e|DM|a8338164-1bb5-4474-9432-4d5a81ab30d8|a8338164-1bb5-4474-9432-4d5a81ab30d8|2020-12-01|2021-02-25|2020-12-01|2021-03-10|2020-12-01|2021-03-10|||Seven Lakes Mobile Home Park|2021-01-12|11|YEARS|M|ASIAN|HISPANIC OR LATINO|5-P-10|5mg - Placebo- 10mg|5-P-10|5mg - Placebo- 10mg|[?]|UMI|2020-12-17|17|
e|DM|6d64077e-1f18-4bd6-ba86-53d90121f7a9|6d64077e-1f18-4bd6-ba86-53d90121f7a9|2020-06-08|2020-06-27|2020-06-08|2020-09-15|2020-06-08|2020-09-15|||Mount Vernon|2020-07-15|47|YEARS|M|UNKNOWN|HISPANIC OR LATINO|5-10-P|5mg - 10mg- Placebo|5-10-P|5mg - 10mg- Placebo|[?]|UMI|2020-08-18|72|
e|DM|91d08486-3db7-4c71-a63f-fd060f4ae1a4|91d08486-3db7-4c71-a63f-fd060f4ae1a4|2020-12-16|2021-01-29|2020-12-16|2021-03-25|2020-12-16|2021-03-25|||Friendship|2021-03-10|63|YEARS|M|NOT REPORTED|NOT REPORTED|5-10-P|5mg - 10mg- Placebo|5-10-P|5mg - 10mg- Placebo|[?]|UMI|2021-03-18|93|
e|DM|f44ad5ae-71d0-462e-8d57-b5f8fffaf2da|f44ad5ae-71d0-462e-8d57-b5f8fffaf2da|2020-08-05|2020-09-10|2020-08-05|2020-11-12|2020-08-05|2020-11-12|||Rombauer|2020-09-11|68|YEARS|F|UNKNOWN|HISPANIC OR LATINO|5-P-10|5mg - Placebo- 10mg|5-P-10|5mg - Placebo- 10mg|[?]|UMI|2020-09-13|40|
e|DM|7b8a488a-ffd8-45bd-9b6d-8c16b1f24997|7b8a488a-ffd8-45bd-9b6d-8c16b1f24997|2020-12-31|2021-04-02|2020-12-31|2021-04-09|2020-12-31|2021-04-09|||Catherine|2021-01-27|20|YEARS|M|NOT REPORTED|NOT REPORTED|5-P-10|5mg - Placebo- 10mg|5-P-10|5mg - Placebo- 10mg|[?]|UMI|2021-03-13|73|
e|DM|87998e13-813a-464d-935c-d5513cd0db5e|87998e13-813a-464d-935c-d5513cd0db5e|2020-08-22|2020-11-05|2020-08-22|2020-11-29|2020-08-22|2020-11-29|||English Point|2020-11-19|11|YEARS|F|NATIVE HAWAIIAN OR OTHER PACIFIC ISLANDER|NOT HISPANIC OR LATINO|5-10-P|5mg - 10mg- Placebo|5-10-P|5mg - 10mg- Placebo|[?]|UMI|2020-09-02|12|
e|DM|7812e96e-ea53-4eb0-8160-d4118c567c9d|7812e96e-ea53-4eb0-8160-d4118c567c9d|2021-01-18|2021-04-07|2021-01-18|2021-04-27|2021-01-18|2021-04-27|||Upwein|2021-02-02|57|YEARS|F|AMERICAN INDIAN OR ALASKA NATIVE|HISPANIC OR LATINO|5-10-P|5mg - 10mg- Placebo|5-10-P|5mg - 10mg- Placebo|[?]|UMI|2021-04-13|86|
e|DM|f9c6c448-0e3d-421f-a63f-be4aeb965256|f9c6c448-0e3d-421f-a63f-be4aeb965256|2020-10-30|2020-11-11|2020-10-30|2021-02-06|2020-10-30|2021-02-06|||Denton|2020-12-01|20|YEARS|M|WHITE|HISPANIC OR LATINO|5-10-P|5mg - 10mg- Placebo|5-10-P|5mg - 10mg- Placebo|[?]|UMI|2020-11-18|20|
e|DM|e8da815a-b53c-46f4-a546-e8553152719f|e8da815a-b53c-46f4-a546-e8553152719f|2020-12-18|2021-02-05|2020-12-18|2021-03-27|2020-12-18|2021-03-27|||Dunes City|2021-02-05|79|YEARS|M|BLACK OR AFRICAN AMERICAN|UNKNOWN|5-10-P|5mg - 10mg- Placebo|5-10-P|5mg - 10mg- Placebo|[?]|UMI|2021-01-27|41|
e|DM|701d794b-07b4-4394-a2a4-d31a9f5b743a|701d794b-07b4-4394-a2a4-d31a9f5b743a|2021-01-20|2021-01-27|2021-01-20|2021-04-29|2021-01-20|2021-04-29|||Coalridge|2021-02-04|49|YEARS|M|BLACK OR AFRICAN AMERICAN|NOT REPORTED|5-P-10|5mg - Placebo- 10mg|5-P-10|5mg - Placebo- 10mg|[?]|UMI|2021-02-23|35|
e|DM|45a9c2a7-3f0e-4bed-ac5b-e9ef5ba4fffd|45a9c2a7-3f0e-4bed-ac5b-e9ef5ba4fffd|2020-12-16|2021-03-07|2020-12-16|2021-03-25|2020-12-16|2021-03-25|||Randolphville|2021-01-03|29|YEARS|F|WHITE|UNKNOWN|5-10-P|5mg - 10mg- Placebo|5-10-P|5mg - 10mg- Placebo|[?]|UMI|2021-02-07|54|
e|DM|060a73b7-19d8-4a73-9976-6bbc8a83a6d5|060a73b7-19d8-4a73-9976-6bbc8a83a6d5|2020-08-01|2020-10-14|2020-08-01|2020-11-08|2020-08-01|2020-11-08|||Riverview Mobile Home Park|2020-09-02|47|YEARS|F|ASIAN|NOT HISPANIC OR LATINO|P-5-10|Placebo - 5mg - 10mg|P-5-10|Placebo - 5mg - 10mg|[?]|UMI|2020-09-08|39|
e|DM|fe8b11f0-70b9-4c5e-8075-6cdb4dd95c5a|fe8b11f0-70b9-4c5e-8075-6cdb4dd95c5a|2020-12-24|2021-03-27|2020-12-24|2021-04-02|2020-12-24|2021-04-02|||Las Cantilles|2021-02-12|57|YEARS|F|NOT REPORTED|NOT REPORTED|5-10-P|5mg - 10mg- Placebo|5-10-P|5mg - 10mg- Placebo|[?]|UMI|2021-01-12|20|
e|DM|bb2487c3-cc05-48f8-9031-0e433c07e3d6|bb2487c3-cc05-48f8-9031-0e433c07e3d6|2020-11-20|2021-01-14|2020-11-20|2021-02-27|2020-11-20|2021-02-27|||Top O'Deep|2021-01-07|54|YEARS|M|AMERICAN INDIAN OR ALASKA NATIVE|UNKNOWN|5-P-10|5mg - Placebo- 10mg|5-P-10|5mg - Placebo- 10mg|[?]|UMI|2020-11-25|6|
e|DM|2661da18-b539-49d8-ac80-9da03c127d21|2661da18-b539-49d8-ac80-9da03c127d21|2020-07-17|2020-09-14|2020-07-17|2020-10-24|2020-07-17|2020-10-24|||Living Springs|2020-10-21|58|YEARS|M|NOT REPORTED|UNKNOWN|P-5-10|Placebo - 5mg - 10mg|P-5-10|Placebo - 5mg - 10mg|[?]|UMI|2020-09-15|61|
e|DM|f1835786-c567-4235-9bd1-f7ffcec12741|f1835786-c567-4235-9bd1-f7ffcec12741|2020-07-28|2020-08-15|2020-07-28|2020-11-04|2020-07-28|2020-11-04|||Lunts Corner|2020-08-24|61|YEARS|M|UNKNOWN|UNKNOWN|5-P-10|5mg - Placebo- 10mg|5-P-10|5mg - Placebo- 10mg|[?]|UMI|2020-08-22|26|
e|DM|019eb415-1da3-40fa-b4ba-b1f381ec3cac|019eb415-1da3-40fa-b4ba-b1f381ec3cac|2020-07-01|2020-07-05|2020-07-01|2020-10-08|2020-07-01|2020-10-08|||Arrowhead|2020-08-01|45|YEARS|F|AMERICAN INDIAN OR ALASKA NATIVE|UNKNOWN|P-5-10|Placebo - 5mg - 10mg|P-5-10|Placebo - 5mg - 10mg|[?]|UMI|2020-08-10|41|
e|DM|2506c6e2-018f-4300-b3b5-44ff8d6e13df|2506c6e2-018f-4300-b3b5-44ff8d6e13df|2020-07-14|2020-09-18|2020-07-14|2020-10-21|2020-07-14|2020-10-21|||Lumer|2020-10-03|37|YEARS|M|NATIVE HAWAIIAN OR OTHER PACIFIC ISLANDER|NOT REPORTED|P-5-10|Placebo - 5mg - 10mg|P-5-10|Placebo - 5mg - 10mg|[?]|UMI|2020-08-26|44|
e|DM|65c439f8-9658-4ac5-9eae-0837182a90fd|65c439f8-9658-4ac5-9eae-0837182a90fd|2020-05-26|2020-06-28|2020-05-26|2020-09-02|2020-05-26|2020-09-02|||Plainview|2020-08-16|63|YEARS|M|ASIAN|NOT HISPANIC OR LATINO|5-10-P|5mg - 10mg- Placebo|5-10-P|5mg - 10mg- Placebo|[?]|UMI|2020-06-30|36|
e|DM|5b73ad4c-bb28-47d1-a2f6-8508444059a5|5b73ad4c-bb28-47d1-a2f6-8508444059a5|2020-06-03|2020-06-13|2020-06-03|2020-09-10|2020-06-03|2020-09-10|||Kahului|2020-08-21|57|YEARS|F|NOT REPORTED|NOT REPORTED|5-P-10|5mg - Placebo- 10mg|5-P-10|5mg - Placebo- 10mg|[?]|UMI|2020-07-28|56|
e|DM|16dcaefa-701c-4863-b010-8ac640aeb55a|16dcaefa-701c-4863-b010-8ac640aeb55a|2020-06-08|2020-08-03|2020-06-08|2020-09-15|2020-06-08|2020-09-15|||Sunnyside|2020-07-06|50|YEARS|M|BLACK OR AFRICAN AMERICAN|NOT HISPANIC OR LATINO|P-5-10|Placebo - 5mg - 10mg|P-5-10|Placebo - 5mg - 10mg|[?]|UMI|2020-08-13|67|
e|DM|4c19e870-9195-41d8-9c8a-8a54bb428732|4c19e870-9195-41d8-9c8a-8a54bb428732|2020-07-25|2020-10-02|2020-07-25|2020-11-01|2020-07-25|2020-11-01|||Sokol Camp|2020-10-15|27|YEARS|M|NATIVE HAWAIIAN OR OTHER PACIFIC ISLANDER|NOT HISPANIC OR LATINO|P-5-10|Placebo - 5mg - 10mg|P-5-10|Placebo - 5mg - 10mg|[?]|UMI|2020-08-29|36|
e|DM|7682184f-0801-4315-9c5f-116f7321a2b0|7682184f-0801-4315-9c5f-116f7321a2b0|2020-12-13|2021-03-19|2020-12-13|2021-03-22|2020-12-13|2021-03-22|||Mahan (historical)|2021-03-11|45|YEARS|M|WHITE|NOT REPORTED|5-P-10|5mg - Placebo- 10mg|5-P-10|5mg - Placebo- 10mg|[?]|UMI|2021-01-28|47|
e|DM|c40f9cb3-b597-4614-8ba5-d40849030ff9|c40f9cb3-b597-4614-8ba5-d40849030ff9|2020-12-03|2021-01-02|2020-12-03|2021-03-12|2020-12-03|2021-03-12|||Browns Valley|2020-12-06|71|YEARS|F|UNKNOWN|UNKNOWN|P-5-10|Placebo - 5mg - 10mg|P-5-10|Placebo - 5mg - 10mg|[?]|UMI|2021-02-01|61|
e|DM|5e850a5f-cfce-4bdd-a8f2-22996b8a6a64|5e850a5f-cfce-4bdd-a8f2-22996b8a6a64|2020-08-31|2020-11-02|2020-08-31|2020-12-08|2020-08-31|2020-12-08|||Prohibition City|2020-09-07|51|YEARS|F|BLACK OR AFRICAN AMERICAN|NOT REPORTED|5-P-10|5mg - Placebo- 10mg|5-P-10|5mg - Placebo- 10mg|[?]|UMI|2020-11-30|92|
e|DM|c9308aa7-f38f-4b54-a919-d3f893b18cd1|c9308aa7-f38f-4b54-a919-d3f893b18cd1|2020-10-29|2021-01-21|2020-10-29|2021-02-05|2020-10-29|2021-02-05|||Boquillas|2021-02-01|49|YEARS|M|UNKNOWN|HISPANIC OR LATINO|5-10-P|5mg - 10mg- Placebo|5-10-P|5mg - 10mg- Placebo|[?]|UMI|2020-11-14|17|
e|DM|e7cfb803-a0be-4020-9982-e0c3cdd90cd1|e7cfb803-a0be-4020-9982-e0c3cdd90cd1|2020-08-13|2020-10-18|2020-08-13|2020-11-20|2020-08-13|2020-11-20|||West Halifax|2020-10-18|57|YEARS|M|UNKNOWN|NOT HISPANIC OR LATINO|P-5-10|Placebo - 5mg - 10mg|P-5-10|Placebo - 5mg - 10mg|[?]|UMI|2020-10-09|58|
e|DM|3da865e8-9680-4112-b6d3-1f5763cfdaae|3da865e8-9680-4112-b6d3-1f5763cfdaae|2021-01-11|2021-03-04|2021-01-11|2021-04-20|2021-01-11|2021-04-20|||Ivan|2021-03-07|77|YEARS|F|NATIVE HAWAIIAN OR OTHER PACIFIC ISLANDER|UNKNOWN|5-10-P|5mg - 10mg- Placebo|5-10-P|5mg - 10mg- Placebo|[?]|UMI|2021-01-12|2|
e|DM|60afc3a3-56b7-4988-9006-e12f3bc1097c|60afc3a3-56b7-4988-9006-e12f3bc1097c|2020-08-07|2020-09-08|2020-08-07|2020-11-14|2020-08-07|2020-11-14|||McCulley|2020-09-17|56|YEARS|M|AMERICAN INDIAN OR ALASKA NATIVE|UNKNOWN|5-10-P|5mg - 10mg- Placebo|5-10-P|5mg - 10mg- Placebo|[?]|UMI|2020-10-04|59|
e|DM|440119fb-ad46-4348-b236-8e2979c7bf2e|440119fb-ad46-4348-b236-8e2979c7bf2e|2020-12-07|2021-03-12|2020-12-07|2021-03-16|2020-12-07|2021-03-16|||Frogtown|2021-01-30|66|YEARS|F|NOT REPORTED|NOT REPORTED|P-5-10|Placebo - 5mg - 10mg|P-5-10|Placebo - 5mg - 10mg|[?]|UMI|2021-01-10|35|
e|DM|af45a9de-c8aa-4602-8e3b-d16998740ebd|af45a9de-c8aa-4602-8e3b-d16998740ebd|2020-06-06|2020-09-09|2020-06-06|2020-09-13|2020-06-06|2020-09-13|||Gallinas|2020-06-23|35|YEARS|M|WHITE|NOT HISPANIC OR LATINO|5-10-P|5mg - 10mg- Placebo|5-10-P|5mg - 10mg- Placebo|[?]|UMI|2020-07-21|46|
e|DM|23306866-3fcb-418d-861b-de3bd779260d|23306866-3fcb-418d-861b-de3bd779260d|2020-07-16|2020-09-09|2020-07-16|2020-10-23|2020-07-16|2020-10-23|||Richwood|2020-08-15|42|YEARS|F|WHITE|NOT REPORTED|5-P-10|5mg - Placebo- 10mg|5-P-10|5mg - Placebo- 10mg|[?]|UMI|2020-07-24|9|
e|DM|144d2eb9-d79a-4a61-91f5-6a807832d8ca|144d2eb9-d79a-4a61-91f5-6a807832d8ca|2020-07-26|2020-10-02|2020-07-26|2020-11-02|2020-07-26|2020-11-02|||Leader's Mobile Home Park|2020-08-24|50|YEARS|F|NATIVE HAWAIIAN OR OTHER PACIFIC ISLANDER|NOT HISPANIC OR LATINO|5-P-10|5mg - Placebo- 10mg|5-P-10|5mg - Placebo- 10mg|[?]|UMI|2020-08-01|7|
e|DM|92855d33-eee6-449f-a9e6-c06a1532571f|92855d33-eee6-449f-a9e6-c06a1532571f|2020-11-20|2021-02-02|2020-11-20|2021-02-27|2020-11-20|2021-02-27|||Nye|2021-02-17|79|YEARS|M|ASIAN|UNKNOWN|5-P-10|5mg - Placebo- 10mg|5-P-10|5mg - Placebo- 10mg|[?]|UMI|2020-11-22|3|
e|DM|0204e2fc-bc80-44cd-a749-90c1bf21a2bb|0204e2fc-bc80-44cd-a749-90c1bf21a2bb|2021-01-20|2021-04-09|2021-01-20|2021-04-29|2021-01-20|2021-04-29|||Campanillas|2021-04-09|57|YEARS|F|NOT REPORTED|UNKNOWN|5-P-10|5mg - Placebo- 10mg|5-P-10|5mg - Placebo- 10mg|[?]|UMI|2021-02-04|16|
e|DM|40cb9bc3-abec-4158-bdee-becdeceba727|40cb9bc3-abec-4158-bdee-becdeceba727|2020-10-10|2020-11-14|2020-10-10|2021-01-17|2020-10-10|2021-01-17|||Creuzet (historical)|2020-11-18|12|YEARS|F|ASIAN|HISPANIC OR LATINO|P-5-10|Placebo - 5mg - 10mg|P-5-10|Placebo - 5mg - 10mg|[?]|UMI|2020-12-27|79|
e|DM|f4dbdcd5-52ca-498c-b72a-1c0209c9a286|f4dbdcd5-52ca-498c-b72a-1c0209c9a286|2020-10-08|2020-12-05|2020-10-08|2021-01-15|2020-10-08|2021-01-15|||Town Creek Manor|2020-11-02|36|YEARS|F|NOT REPORTED|NOT HISPANIC OR LATINO|5-P-10|5mg - Placebo- 10mg|5-P-10|5mg - Placebo- 10mg|[?]|UMI|2020-10-25|18|
e|DM|616b284a-3fed-4009-bafe-7da10acd537e|616b284a-3fed-4009-bafe-7da10acd537e|2020-08-25|2020-10-18|2020-08-25|2020-12-02|2020-08-25|2020-12-02|||Navo|2020-10-08|22|YEARS|M|ASIAN|HISPANIC OR LATINO|5-10-P|5mg - 10mg- Placebo|5-10-P|5mg - 10mg- Placebo|[?]|UMI|2020-09-01|8|
e|DM|d39b53da-187f-4da6-9614-2bd301e9ad05|d39b53da-187f-4da6-9614-2bd301e9ad05|2020-09-23|2020-12-15|2020-09-23|2020-12-31|2020-09-23|2020-12-31|||Goqchol|2020-12-01|50|YEARS|F|ASIAN|UNKNOWN|5-10-P|5mg - 10mg- Placebo|5-10-P|5mg - 10mg- Placebo|[?]|UMI|2020-10-21|29|
e|DM|c2a43fc4-83c4-4522-b3b2-d4cb1a92a4b7|c2a43fc4-83c4-4522-b3b2-d4cb1a92a4b7|2020-11-25|2021-01-16|2020-11-25|2021-03-04|2020-11-25|2021-03-04|||Adler|2021-01-02|53|YEARS|F|ASIAN|UNKNOWN|P-5-10|Placebo - 5mg - 10mg|P-5-10|Placebo - 5mg - 10mg|[?]|UMI|2021-01-17|54|
e|DM|e51cf168-af89-44d9-9e56-14785071f6b0|e51cf168-af89-44d9-9e56-14785071f6b0|2020-11-18|2021-01-04|2020-11-18|2021-02-25|2020-11-18|2021-02-25|||Bratton|2021-02-17|37|YEARS|M|NOT REPORTED|HISPANIC OR LATINO|5-P-10|5mg - Placebo- 10mg|5-P-10|5mg - Placebo- 10mg|[?]|UMI|2021-02-04|79|
e|DM|8416f8c6-d0e4-43fc-9a66-6a916e853e87|8416f8c6-d0e4-43fc-9a66-6a916e853e87|2020-06-04|2020-06-15|2020-06-04|2020-09-11|2020-06-04|2020-09-11|||Dille|2020-08-12|59|YEARS|F|ASIAN|NOT REPORTED|5-10-P|5mg - 10mg- Placebo|5-10-P|5mg - 10mg- Placebo|[?]|UMI|2020-08-12|70|
e|DM|a110e924-90a1-4e84-b47a-410f800fa201|a110e924-90a1-4e84-b47a-410f800fa201|2020-10-20|2020-11-22|2020-10-20|2021-01-27|2020-10-20|2021-01-27|||Point Independence|2020-11-11|47|YEARS|M|UNKNOWN|NOT REPORTED|5-10-P|5mg - 10mg- Placebo|5-10-P|5mg - 10mg- Placebo|[?]|UMI|2020-12-14|56|
e|DM|40681cb8-5d49-4e1d-b893-f5fad62a0885|40681cb8-5d49-4e1d-b893-f5fad62a0885|2020-07-30|2020-08-26|2020-07-30|2020-11-06|2020-07-30|2020-11-06|||Beau Ridge|2020-09-08|37|YEARS|M|AMERICAN INDIAN OR ALASKA NATIVE|NOT REPORTED|5-P-10|5mg - Placebo- 10mg|5-P-10|5mg - Placebo- 10mg|[?]|UMI|2020-10-05|68|
e|DM|7a7dd1e0-46b7-4a46-bbde-601c5ee3ceeb|7a7dd1e0-46b7-4a46-bbde-601c5ee3ceeb|2020-12-08|2020-12-11|2020-12-08|2021-03-17|2020-12-08|2021-03-17|||Hamlin Hills|2021-03-04|74|YEARS|M|AMERICAN INDIAN OR ALASKA NATIVE|NOT HISPANIC OR LATINO|5-10-P|5mg - 10mg- Placebo|5-10-P|5mg - 10mg- Placebo|[?]|UMI|2021-02-05|60|
e|DM|96e65c5c-723c-42d9-8e88-0bcb600e9f88|96e65c5c-723c-42d9-8e88-0bcb600e9f88|2020-09-01|2020-10-07|2020-09-01|2020-12-09|2020-09-01|2020-12-09|||Bryce Canyon|2020-09-22|46|YEARS|F|NATIVE HAWAIIAN OR OTHER PACIFIC ISLANDER|NOT HISPANIC OR LATINO|5-P-10|5mg - Placebo- 10mg|5-P-10|5mg - Placebo- 10mg|[?]|UMI|2020-11-10|71|
e|DM|eaf1edbe-1848-4614-b7b1-dcbcba5f0a15|eaf1edbe-1848-4614-b7b1-dcbcba5f0a15|2020-07-03|2020-08-06|2020-07-03|2020-10-10|2020-07-03|2020-10-10|||Willowbrook|2020-08-24|43|YEARS|F|ASIAN|UNKNOWN|5-P-10|5mg - Placebo- 10mg|5-P-10|5mg - Placebo- 10mg|[?]|UMI|2020-10-04|94|
e|DM|f81742a2-5250-43d7-a6e2-8fcb1625a114|f81742a2-5250-43d7-a6e2-8fcb1625a114|2020-05-21|2020-06-07|2020-05-21|2020-08-28|2020-05-21|2020-08-28|||Armada|2020-06-12|68|YEARS|F|AMERICAN INDIAN OR ALASKA NATIVE|NOT HISPANIC OR LATINO|5-P-10|5mg - Placebo- 10mg|5-P-10|5mg - Placebo- 10mg|[?]|UMI|2020-06-12|23|
e|DM|c6bad1d0-3514-4f98-b229-d093a94dfbc4|c6bad1d0-3514-4f98-b229-d093a94dfbc4|2020-06-15|2020-07-09|2020-06-15|2020-09-22|2020-06-15|2020-09-22|||Colton|2020-08-24|32|YEARS|F|ASIAN|NOT HISPANIC OR LATINO|5-P-10|5mg - Placebo- 10mg|5-P-10|5mg - Placebo- 10mg|[?]|UMI|2020-09-16|94|
e|DM|84d68bcc-dc7a-4366-9630-40ce8885351d|84d68bcc-dc7a-4366-9630-40ce8885351d|2020-06-07|2020-07-13|2020-06-07|2020-09-14|2020-06-07|2020-09-14|||Mount Pleasant Manor|2020-06-20|29|YEARS|M|UNKNOWN|NOT REPORTED|5-10-P|5mg - 10mg- Placebo|5-10-P|5mg - 10mg- Placebo|[?]|UMI|2020-08-15|70|
e|DM|517f3930-5202-4e0a-b3e1-85ed4bd7e117|517f3930-5202-4e0a-b3e1-85ed4bd7e117|2020-12-30|2021-02-15|2020-12-30|2021-04-08|2020-12-30|2021-04-08|||Shobonier|2021-02-12|65|YEARS|M|UNKNOWN|NOT HISPANIC OR LATINO|5-P-10|5mg - Placebo- 10mg|5-P-10|5mg - Placebo- 10mg|[?]|UMI|2021-03-07|68|
e|DM|edd73650-27bb-474f-bab7-d2c3d57b2dc4|edd73650-27bb-474f-bab7-d2c3d57b2dc4|2020-12-12|2021-02-28|2020-12-12|2021-03-21|2020-12-12|2021-03-21|||Poplar Springs|2020-12-25|67|YEARS|M|NOT REPORTED|NOT HISPANIC OR LATINO|P-5-10|Placebo - 5mg - 10mg|P-5-10|Placebo - 5mg - 10mg|[?]|UMI|2021-02-11|62|
e|DM|98737dfa-0058-4420-a515-38526f01f90d|98737dfa-0058-4420-a515-38526f01f90d|2020-08-31|2020-11-13|2020-08-31|2020-12-08|2020-08-31|2020-12-08|||Wormwood Hill|2020-09-11|29|YEARS|F|WHITE|NOT REPORTED|P-5-10|Placebo - 5mg - 10mg|P-5-10|Placebo - 5mg - 10mg|[?]|UMI|2020-10-25|56|
e|DM|e713c631-cdd8-428f-a3a6-0195f6fb80b4|e713c631-cdd8-428f-a3a6-0195f6fb80b4|2020-09-24|2020-12-28|2020-09-24|2021-01-01|2020-09-24|2021-01-01|||Mount Olive|2020-10-22|35|YEARS|F|ASIAN|UNKNOWN|5-10-P|5mg - 10mg- Placebo|5-10-P|5mg - 10mg- Placebo|[?]|UMI|2020-11-14|52|
e|DM|a3964bed-1273-4bce-bbb4-b8d768b30aa3|a3964bed-1273-4bce-bbb4-b8d768b30aa3|2020-09-11|2020-12-04|2020-09-11|2020-12-19|2020-09-11|2020-12-19|||Beechnut Crossing|2020-11-14|32|YEARS|F|WHITE|HISPANIC OR LATINO|5-P-10|5mg - Placebo- 10mg|5-P-10|5mg - Placebo- 10mg|[?]|UMI|2020-11-11|62|
e|DM|b77116ca-2b32-411f-a0ff-fa70d74eb4bd|b77116ca-2b32-411f-a0ff-fa70d74eb4bd|2020-12-12|2021-01-07|2020-12-12|2021-03-21|2020-12-12|2021-03-21|||Crestwood|2021-01-23|25|YEARS|M|ASIAN|UNKNOWN|P-5-10|Placebo - 5mg - 10mg|P-5-10|Placebo - 5mg - 10mg|[?]|UMI|2021-03-04|83|
e|DM|cedc258a-b0e3-4590-afe1-9ed2b6ba28bc|cedc258a-b0e3-4590-afe1-9ed2b6ba28bc|2020-05-31|2020-06-11|2020-05-31|2020-09-07|2020-05-31|2020-09-07|||Limas|2020-08-12|30|YEARS|F|UNKNOWN|NOT REPORTED|5-P-10|5mg - Placebo- 10mg|5-P-10|5mg - Placebo- 10mg|[?]|UMI|2020-08-03|65|
e|DM|597ff319-c16e-4aae-a7d9-ed2bc25684dc|597ff319-c16e-4aae-a7d9-ed2bc25684dc|2020-05-19|2020-08-25|2020-05-19|2020-08-26|2020-05-19|2020-08-26|||Moores Mobile Manor|2020-07-04|75|YEARS|M|ASIAN|NOT REPORTED|5-P-10|5mg - Placebo- 10mg|5-P-10|5mg - Placebo- 10mg|[?]|UMI|2020-07-11|54|
e|DM|7d845e3e-8bd1-4647-a3e8-352a52b585cb|7d845e3e-8bd1-4647-a3e8-352a52b585cb|2020-10-30|2020-11-20|2020-10-30|2021-02-06|2020-10-30|2021-02-06|||Pinehurst|2021-01-10|34|YEARS|M|BLACK OR AFRICAN AMERICAN|NOT HISPANIC OR LATINO|5-10-P|5mg - 10mg- Placebo|5-10-P|5mg - 10mg- Placebo|[?]|UMI|2021-01-14|77|
e|DM|7e9f4283-f90b-4f74-939c-b42648e8373c|7e9f4283-f90b-4f74-939c-b42648e8373c|2020-12-06|2021-02-19|2020-12-06|2021-03-15|2020-12-06|2021-03-15|||Blendon Corner|2021-02-21|23|YEARS|F|AMERICAN INDIAN OR ALASKA NATIVE|UNKNOWN|5-10-P|5mg - 10mg- Placebo|5-10-P|5mg - 10mg- Placebo|[?]|UMI|2021-03-10|95|
e|DM|20a637e6-83d2-4a86-9ecc-8ddb0523997f|20a637e6-83d2-4a86-9ecc-8ddb0523997f|2020-10-22|2021-01-11|2020-10-22|2021-01-29|2020-10-22|2021-01-29|||River Ridge|2021-01-14|21|YEARS|M|NOT REPORTED|HISPANIC OR LATINO|5-P-10|5mg - Placebo- 10mg|5-P-10|5mg - Placebo- 10mg|[?]|UMI|2021-01-02|73|
e|DM|29b5d32c-0c0e-42b2-8dfd-ff92a7a6229e|29b5d32c-0c0e-42b2-8dfd-ff92a7a6229e|2020-05-07|2020-06-13|2020-05-07|2020-08-14|2020-05-07|2020-08-14|||Olivers Estates|2020-08-07|54|YEARS|M|BLACK OR AFRICAN AMERICAN|UNKNOWN|5-10-P|5mg - 10mg- Placebo|5-10-P|5mg - 10mg- Placebo|[?]|UMI|2020-05-22|16|
e|DM|595aa95c-4378-47c1-96e9-5512d08fb653|595aa95c-4378-47c1-96e9-5512d08fb653|2020-08-14|2020-09-23|2020-08-14|2020-11-21|2020-08-14|2020-11-21|||South Gate Mobile Home Park|2020-11-03|19|YEARS|F|AMERICAN INDIAN OR ALASKA NATIVE|NOT HISPANIC OR LATINO|5-P-10|5mg - Placebo- 10mg|5-P-10|5mg - Placebo- 10mg|[?]|UMI|2020-10-19|67|
e|DM|b528dc24-e791-41b1-95b3-fc0be18da47f|b528dc24-e791-41b1-95b3-fc0be18da47f|2020-12-18|2021-03-19|2020-12-18|2021-03-27|2020-12-18|2021-03-27|||Butterfield (historical)|2021-01-17|29|YEARS|F|NATIVE HAWAIIAN OR OTHER PACIFIC ISLANDER|UNKNOWN|P-5-10|Placebo - 5mg - 10mg|P-5-10|Placebo - 5mg - 10mg|[?]|UMI|2021-01-13|27|
e|DM|7a43c892-0e7f-4f33-9130-e175e475531f|7a43c892-0e7f-4f33-9130-e175e475531f|2020-05-08|2020-06-05|2020-05-08|2020-08-15|2020-05-08|2020-08-15|||Morameal|2020-05-13|44|YEARS|M|ASIAN|NOT HISPANIC OR LATINO|5-10-P|5mg - 10mg- Placebo|5-10-P|5mg - 10mg- Placebo|[?]|UMI|2020-07-21|75|
e|DM|8cce3de1-e56d-4c2c-9b45-cdf1f226dc5e|8cce3de1-e56d-4c2c-9b45-cdf1f226dc5e|2020-12-01|2021-02-21|2020-12-01|2021-03-10|2020-12-01|2021-03-10|||Depler Springs|2020-12-02|52|YEARS|M|WHITE|NOT HISPANIC OR LATINO|5-P-10|5mg - Placebo- 10mg|5-P-10|5mg - Placebo- 10mg|[?]|UMI|2020-12-04|4|
e|DM|bde9096e-9ab9-45fe-8e96-1ec9762824a0|bde9096e-9ab9-45fe-8e96-1ec9762824a0|2020-08-18|2020-10-08|2020-08-18|2020-11-25|2020-08-18|2020-11-25|||Oakland Park|2020-10-28|76|YEARS|F|UNKNOWN|NOT HISPANIC OR LATINO|5-P-10|5mg - Placebo- 10mg|5-P-10|5mg - Placebo- 10mg|[?]|UMI|2020-09-15|29|
e|DM|ea7907aa-811e-48ec-9fc6-ab8affde8913|ea7907aa-811e-48ec-9fc6-ab8affde8913|2020-06-19|2020-08-16|2020-06-19|2020-09-26|2020-06-19|2020-09-26|||City of Lake Buena Vista Trailer Park|2020-09-23|31|YEARS|F|NATIVE HAWAIIAN OR OTHER PACIFIC ISLANDER|UNKNOWN|P-5-10|Placebo - 5mg - 10mg|P-5-10|Placebo - 5mg - 10mg|[?]|UMI|2020-08-27|70|
e|DM|3aa9935c-943d-406a-bb6e-fc067fa8a487|3aa9935c-943d-406a-bb6e-fc067fa8a487|2020-08-18|2020-11-19|2020-08-18|2020-11-25|2020-08-18|2020-11-25|||Pines Cottage Area|2020-10-16|51|YEARS|M|UNKNOWN|NOT HISPANIC OR LATINO|5-P-10|5mg - Placebo- 10mg|5-P-10|5mg - Placebo- 10mg|[?]|UMI|2020-10-09|53|
e|DM|0cac2007-ca12-45ba-9b1c-70f753232f05|0cac2007-ca12-45ba-9b1c-70f753232f05|2020-11-22|2021-02-01|2020-11-22|2021-03-01|2020-11-22|2021-03-01|||Round Mountain|2021-01-04|63|YEARS|M|WHITE|UNKNOWN|5-P-10|5mg - Placebo- 10mg|5-P-10|5mg - Placebo- 10mg|[?]|UMI|2021-01-15|55|
e|DM|2339e91a-b93e-426f-9b60-3d3b6969268d|2339e91a-b93e-426f-9b60-3d3b6969268d|2020-06-28|2020-08-31|2020-06-28|2020-10-05|2020-06-28|2020-10-05|||Rose Hill|2020-08-18|55|YEARS|F|WHITE|NOT REPORTED|P-5-10|Placebo - 5mg - 10mg|P-5-10|Placebo - 5mg - 10mg|[?]|UMI|2020-07-12|15|
e|DM|0d09e35b-e864-4492-a341-21c71d92b551|0d09e35b-e864-4492-a341-21c71d92b551|2020-10-21|2020-11-14|2020-10-21|2021-01-28|2020-10-21|2021-01-28|||Fayette|2020-11-01|23|YEARS|M|AMERICAN INDIAN OR ALASKA NATIVE|NOT HISPANIC OR LATINO|5-10-P|5mg - 10mg- Placebo|5-10-P|5mg - 10mg- Placebo|[?]|UMI|2020-11-30|41|
e|DM|0f8b5d32-6c34-4ea3-bab7-816c1d755ffd|0f8b5d32-6c34-4ea3-bab7-816c1d755ffd|2020-05-27|2020-08-26|2020-05-27|2020-09-03|2020-05-27|2020-09-03|||Dugspur|2020-07-11|80|YEARS|F|ASIAN|NOT REPORTED|5-P-10|5mg - Placebo- 10mg|5-P-10|5mg - Placebo- 10mg|[?]|UMI|2020-05-30|4|
e|DM|0a5b1036-cd00-4221-b218-ee2664e5a43e|0a5b1036-cd00-4221-b218-ee2664e5a43e|2020-12-24|2021-01-20|2020-12-24|2021-04-02|2020-12-24|2021-04-02|||Alfont|2021-02-07|73|YEARS|F|BLACK OR AFRICAN AMERICAN|NOT REPORTED|P-5-10|Placebo - 5mg - 10mg|P-5-10|Placebo - 5mg - 10mg|[?]|UMI|2021-03-03|70|
e|DM|a4f74465-7abc-4cc2-a0be-25d1c802af8c|a4f74465-7abc-4cc2-a0be-25d1c802af8c|2020-09-21|2020-12-20|2020-09-21|2020-12-29|2020-09-21|2020-12-29|||Cave Spring|2020-11-23|22|YEARS|M|ASIAN|UNKNOWN|P-5-10|Placebo - 5mg - 10mg|P-5-10|Placebo - 5mg - 10mg|[?]|UMI|2020-10-18|28|
e|DM|2d38f416-c40c-41a1-a4be-bcbfa4a97ad9|2d38f416-c40c-41a1-a4be-bcbfa4a97ad9|2020-11-03|2021-01-03|2020-11-03|2021-02-10|2020-11-03|2021-02-10|||Larchmont Knolls|2020-12-30|13|YEARS|F|UNKNOWN|NOT HISPANIC OR LATINO|5-10-P|5mg - 10mg- Placebo|5-10-P|5mg - 10mg- Placebo|[?]|UMI|2021-01-16|75|
e|DM|e7262592-01e8-4cb3-b967-ec1037505e81|e7262592-01e8-4cb3-b967-ec1037505e81|2020-09-03|2020-11-05|2020-09-03|2020-12-11|2020-09-03|2020-12-11|||Libertyville|2020-10-12|23|YEARS|F|UNKNOWN|UNKNOWN|5-P-10|5mg - Placebo- 10mg|5-P-10|5mg - Placebo- 10mg|[?]|UMI|2020-10-15|43|
e|DM|bf150829-1b25-418a-9bc6-61716984387c|bf150829-1b25-418a-9bc6-61716984387c|2020-06-06|2020-06-24|2020-06-06|2020-09-13|2020-06-06|2020-09-13|||Russellton|2020-06-25|47|YEARS|M|BLACK OR AFRICAN AMERICAN|HISPANIC OR LATINO|5-P-10|5mg - Placebo- 10mg|5-P-10|5mg - Placebo- 10mg|[?]|UMI|2020-08-01|57|
e|DM|5c1cc260-97a0-493c-bc11-57f31ffd7455|5c1cc260-97a0-493c-bc11-57f31ffd7455|2020-08-28|2020-11-28|2020-08-28|2020-12-05|2020-08-28|2020-12-05|||Acklin Gap (historical)|2020-08-31|49|YEARS|M|NOT REPORTED|UNKNOWN|P-5-10|Placebo - 5mg - 10mg|P-5-10|Placebo - 5mg - 10mg|[?]|UMI|2020-09-17|21|
e|DM|cca2835b-ca8d-4db6-89b4-9f2855968a8a|cca2835b-ca8d-4db6-89b4-9f2855968a8a|2020-07-10|2020-09-08|2020-07-10|2020-10-17|2020-07-10|2020-10-17|||Hidden Valley|2020-08-30|45|YEARS|M|AMERICAN INDIAN OR ALASKA NATIVE|UNKNOWN|5-10-P|5mg - 10mg- Placebo|5-10-P|5mg - 10mg- Placebo|[?]|UMI|2020-08-11|33|
e|DM|420e3ac1-ba3f-4baf-bcfb-121c0fdc947e|420e3ac1-ba3f-4baf-bcfb-121c0fdc947e|2020-09-28|2020-12-19|2020-09-28|2021-01-05|2020-09-28|2021-01-05|||Tilton|2020-11-26|32|YEARS|M|NOT REPORTED|NOT REPORTED|5-P-10|5mg - Placebo- 10mg|5-P-10|5mg - Placebo- 10mg|[?]|UMI|2020-11-13|47|
e|DM|74cd0a4f-f9fe-4df9-93b8-7832512d0828|74cd0a4f-f9fe-4df9-93b8-7832512d0828|2020-05-06|2020-05-25|2020-05-06|2020-08-13|2020-05-06|2020-08-13|||Mountain Lake Colony|2020-07-24|21|YEARS|M|BLACK OR AFRICAN AMERICAN|HISPANIC OR LATINO|5-P-10|5mg - Placebo- 10mg|5-P-10|5mg - Placebo- 10mg|[?]|UMI|2020-06-04|30|
e|DM|09238251-feaf-45a9-b295-dfed9a75fbb2|09238251-feaf-45a9-b295-dfed9a75fbb2|2020-06-17|2020-08-28|2020-06-17|2020-09-24|2020-06-17|2020-09-24|||Earles|2020-07-26|48|YEARS|F|AMERICAN INDIAN OR ALASKA NATIVE|NOT HISPANIC OR LATINO|5-10-P|5mg - 10mg- Placebo|5-10-P|5mg - 10mg- Placebo|[?]|UMI|2020-08-13|58|
e|DM|3e896568-85dc-4a14-ba41-eb3575940a9d|3e896568-85dc-4a14-ba41-eb3575940a9d|2021-01-17|2021-04-16|2021-01-17|2021-04-26|2021-01-17|2021-04-26|||Hatmaker (historical)|2021-03-28|51|YEARS|F|NOT REPORTED|NOT REPORTED|P-5-10|Placebo - 5mg - 10mg|P-5-10|Placebo - 5mg - 10mg|[?]|UMI|2021-04-10|84|
e|DM|7e759204-4cf5-49fb-9d9e-82e0199c7ccc|7e759204-4cf5-49fb-9d9e-82e0199c7ccc|2020-10-13|2020-11-27|2020-10-13|2021-01-20|2020-10-13|2021-01-20|||Daisey City|2020-12-20|19|YEARS|F|WHITE|NOT HISPANIC OR LATINO|5-10-P|5mg - 10mg- Placebo|5-10-P|5mg - 10mg- Placebo|[?]|UMI|2020-11-01|20|
e|DM|725c5a91-72b0-4b2c-a51a-d1006303373e|725c5a91-72b0-4b2c-a51a-d1006303373e|2020-11-14|2021-02-18|2020-11-14|2021-02-21|2020-11-14|2021-02-21|||Redtown|2021-02-14|24|YEARS|F|NOT REPORTED|NOT HISPANIC OR LATINO|5-10-P|5mg - 10mg- Placebo|5-10-P|5mg - 10mg- Placebo|[?]|UMI|2021-01-08|56|
e|DM|5bf5b31d-a59d-46b7-8f8f-97919d449565|5bf5b31d-a59d-46b7-8f8f-97919d449565|2020-12-23|2021-03-14|2020-12-23|2021-04-01|2020-12-23|2021-04-01|||Little Springs|2021-03-22|64|YEARS|M|NOT REPORTED|UNKNOWN|P-5-10|Placebo - 5mg - 10mg|P-5-10|Placebo - 5mg - 10mg|[?]|UMI|2021-01-03|12|
e|DM|7fc35880-1672-4e64-ba3b-aa3f1e42764b|7fc35880-1672-4e64-ba3b-aa3f1e42764b|2020-05-17|2020-05-22|2020-05-17|2020-08-24|2020-05-17|2020-08-24|||Gogginsville|2020-05-31|39|YEARS|F|BLACK OR AFRICAN AMERICAN|HISPANIC OR LATINO|5-P-10|5mg - Placebo- 10mg|5-P-10|5mg - Placebo- 10mg|[?]|UMI|2020-05-27|11|
e|DM|f093c85b-c6bc-414d-a6e3-a8dcb33226ff|f093c85b-c6bc-414d-a6e3-a8dcb33226ff|2020-10-05|2020-12-20|2020-10-05|2021-01-12|2020-10-05|2021-01-12|||Honduras|2020-12-05|70|YEARS|M|NOT REPORTED|UNKNOWN|5-P-10|5mg - Placebo- 10mg|5-P-10|5mg - Placebo- 10mg|[?]|UMI|2020-10-24|20|
e|DM|f8878ffd-67af-414c-b346-596dbec640cf|f8878ffd-67af-414c-b346-596dbec640cf|2020-12-26|2021-02-03|2020-12-26|2021-04-04|2020-12-26|2021-04-04|||Sitka|2021-01-12|28|YEARS|F|UNKNOWN|HISPANIC OR LATINO|5-P-10|5mg - Placebo- 10mg|5-P-10|5mg - Placebo- 10mg|[?]|UMI|2021-03-02|67|
e|DM|d8212248-cd8c-4404-8ad8-2c89c05bee9e|d8212248-cd8c-4404-8ad8-2c89c05bee9e|2020-05-02|2020-07-22|2020-05-02|2020-08-09|2020-05-02|2020-08-09|||Cedar Crossing|2020-05-08|40|YEARS|M|WHITE|NOT HISPANIC OR LATINO|5-10-P|5mg - 10mg- Placebo|5-10-P|5mg - 10mg- Placebo|[?]|UMI|2020-06-22|52|
e|DM|ea9c56ad-d69c-47c2-b486-65ce91e1f60d|ea9c56ad-d69c-47c2-b486-65ce91e1f60d|2020-06-23|2020-07-05|2020-06-23|2020-09-30|2020-06-23|2020-09-30|||Palm Terrace Mobile Manor|2020-07-20|53|YEARS|M|NOT REPORTED|NOT HISPANIC OR LATINO|P-5-10|Placebo - 5mg - 10mg|P-5-10|Placebo - 5mg - 10mg|[?]|UMI|2020-07-01|9|
e|DM|b832144e-88c4-4ad6-b173-abac7802a36c|b832144e-88c4-4ad6-b173-abac7802a36c|2021-01-05|2021-01-15|2021-01-05|2021-04-14|2021-01-05|2021-04-14|||Moapa Town|2021-02-25|75|YEARS|F|AMERICAN INDIAN OR ALASKA NATIVE|UNKNOWN|P-5-10|Placebo - 5mg - 10mg|P-5-10|Placebo - 5mg - 10mg|[?]|UMI|2021-01-16|12|
e|DM|6acacd87-c487-401c-8888-76ccf97b640d|6acacd87-c487-401c-8888-76ccf97b640d|2020-05-16|2020-07-22|2020-05-16|2020-08-23|2020-05-16|2020-08-23|||Riverside Park (historical)|2020-06-19|47|YEARS|M|BLACK OR AFRICAN AMERICAN|UNKNOWN|5-10-P|5mg - 10mg- Placebo|5-10-P|5mg - 10mg- Placebo|[?]|UMI|2020-07-09|55|
e|DM|3e9b342f-56c3-45cb-9b9f-5b6e5f555bdf|3e9b342f-56c3-45cb-9b9f-5b6e5f555bdf|2020-07-07|2020-10-04|2020-07-07|2020-10-14|2020-07-07|2020-10-14|||Birmingham (historical)|2020-07-26|12|YEARS|F|NOT REPORTED|HISPANIC OR LATINO|5-P-10|5mg - Placebo- 10mg|5-P-10|5mg - Placebo- 10mg|[?]|UMI|2020-09-30|86|
e|DM|73988e01-56c0-4b31-84e2-c23ce0bac5ac|73988e01-56c0-4b31-84e2-c23ce0bac5ac|2020-12-25|2021-03-26|2020-12-25|2021-04-03|2020-12-25|2021-04-03|||Boynton|2021-02-13|13|YEARS|F|UNKNOWN|UNKNOWN|5-P-10|5mg - Placebo- 10mg|5-P-10|5mg - Placebo- 10mg|[?]|UMI|2021-02-12|50|
e|DM|0670f6a3-18c9-4027-91c1-56f5555589a8|0670f6a3-18c9-4027-91c1-56f5555589a8|2020-05-04|2020-07-10|2020-05-04|2020-08-11|2020-05-04|2020-08-11|2020-08-11|Y|Richfield|2020-06-07|30|YEARS|M|ASIAN|HISPANIC OR LATINO|P-5-10|Placebo - 5mg - 10mg|P-5-10|Placebo - 5mg - 10mg|[?]|UMI|2020-05-25|22|
e|DM|59179734-8784-4a88-aa6b-51b6082ffc1b|59179734-8784-4a88-aa6b-51b6082ffc1b|2020-08-02|2020-08-11|2020-08-02|2020-11-09|2020-08-02|2020-11-09|||Dadeville|2020-08-31|16|YEARS|F|AMERICAN INDIAN OR ALASKA NATIVE|UNKNOWN|5-10-P|5mg - 10mg- Placebo|5-10-P|5mg - 10mg- Placebo|[?]|UMI|2020-09-27|57|
e|DM|ef21c401-3b32-478b-9a7d-e25ccc3e3c60|ef21c401-3b32-478b-9a7d-e25ccc3e3c60|2020-08-13|2020-08-26|2020-08-13|2020-11-20|2020-08-13|2020-11-20|||Jessup|2020-09-29|11|YEARS|M|WHITE|NOT REPORTED|P-5-10|Placebo - 5mg - 10mg|P-5-10|Placebo - 5mg - 10mg|[?]|UMI|2020-09-30|49|
e|DM|01c642f8-48ef-4375-aa2b-d0940b74e580|01c642f8-48ef-4375-aa2b-d0940b74e580|2020-09-10|2020-11-01|2020-09-10|2020-12-18|2020-09-10|2020-12-18|||Peruque|2020-12-01|60|YEARS|M|WHITE|HISPANIC OR LATINO|P-5-10|Placebo - 5mg - 10mg|P-5-10|Placebo - 5mg - 10mg|[?]|UMI|2020-12-08|90|
e|DM|c0e7028c-6f5c-410a-afde-e56af2177983|c0e7028c-6f5c-410a-afde-e56af2177983|2020-06-27|2020-10-03|2020-06-27|2020-10-04|2020-06-27|2020-10-04|||Gunn City|2020-08-11|11|YEARS|F|NOT REPORTED|NOT REPORTED|P-5-10|Placebo - 5mg - 10mg|P-5-10|Placebo - 5mg - 10mg|[?]|UMI|2020-07-22|26|
e|DM|eba928ed-9434-4e75-b49d-169298f966e1|eba928ed-9434-4e75-b49d-169298f966e1|2020-08-03|2020-09-18|2020-08-03|2020-11-10|2020-08-03|2020-11-10|||Mangoraca (historical)|2020-08-28|27|YEARS|F|AMERICAN INDIAN OR ALASKA NATIVE|NOT HISPANIC OR LATINO|P-5-10|Placebo - 5mg - 10mg|P-5-10|Placebo - 5mg - 10mg|[?]|UMI|2020-08-22|20|
e|DM|4772aa80-2097-4867-a549-b6f9b140f141|4772aa80-2097-4867-a549-b6f9b140f141|2020-07-03|2020-09-20|2020-07-03|2020-10-10|2020-07-03|2020-10-10|||Askew (historical)|2020-09-29|16|YEARS|F|ASIAN|UNKNOWN|5-10-P|5mg - 10mg- Placebo|5-10-P|5mg - 10mg- Placebo|[?]|UMI|2020-07-24|22|
e|DM|74acb1a5-6dab-4b9e-ac7b-d242bdd44d26|74acb1a5-6dab-4b9e-ac7b-d242bdd44d26|2020-05-29|2020-09-02|2020-05-29|2020-09-05|2020-05-29|2020-09-05|||Olivers Crossroads|2020-08-17|62|YEARS|M|WHITE|NOT HISPANIC OR LATINO|5-10-P|5mg - 10mg- Placebo|5-10-P|5mg - 10mg- Placebo|[?]|UMI|2020-08-22|86|
e|DM|4d8dd0d0-407d-4374-8345-c11f30603273|4d8dd0d0-407d-4374-8345-c11f30603273|2020-12-23|2021-03-01|2020-12-23|2021-04-01|2020-12-23|2021-04-01|||Indian Hills|2021-03-09|24|YEARS|M|BLACK OR AFRICAN AMERICAN|HISPANIC OR LATINO|5-P-10|5mg - Placebo- 10mg|5-P-10|5mg - Placebo- 10mg|[?]|UMI|2021-03-05|73|
e|DM|6996077b-556a-47b9-bbff-20c1b4df35ea|6996077b-556a-47b9-bbff-20c1b4df35ea|2020-05-30|2020-06-17|2020-05-30|2020-09-06|2020-05-30|2020-09-06|||Canoncito|2020-07-02|46|YEARS|M|AMERICAN INDIAN OR ALASKA NATIVE|NOT REPORTED|5-10-P|5mg - 10mg- Placebo|5-10-P|5mg - 10mg- Placebo|[?]|UMI|2020-06-08|10|
e|DM|d79d31c5-d51a-46a7-b22c-20d6d483f46e|d79d31c5-d51a-46a7-b22c-20d6d483f46e|2020-10-14|2021-01-20|2020-10-14|2021-01-21|2020-10-14|2021-01-21|||Oak Grove|2020-10-18|63|YEARS|F|UNKNOWN|NOT HISPANIC OR LATINO|5-P-10|5mg - Placebo- 10mg|5-P-10|5mg - Placebo- 10mg|[?]|UMI|2020-10-20|7|
e|DM|738d539e-a810-4207-8904-fc6a5d055424|738d539e-a810-4207-8904-fc6a5d055424|2020-12-30|2021-04-03|2020-12-30|2021-04-08|2020-12-30|2021-04-08|||Stelling Village|2021-02-05|30|YEARS|F|WHITE|HISPANIC OR LATINO|5-10-P|5mg - 10mg- Placebo|5-10-P|5mg - 10mg- Placebo|[?]|UMI|2021-03-12|73|
e|DM|95e3cff6-3c61-4e31-97ff-cfcbe1cab4f7|95e3cff6-3c61-4e31-97ff-cfcbe1cab4f7|2020-08-02|2020-09-01|2020-08-02|2020-11-09|2020-08-02|2020-11-09|||Churchville|2020-08-26|13|YEARS|F|WHITE|NOT REPORTED|5-10-P|5mg - 10mg- Placebo|5-10-P|5mg - 10mg- Placebo|[?]|UMI|2020-11-08|99|
e|DM|20841d37-0444-4d1d-b934-1e805cdacdaf|20841d37-0444-4d1d-b934-1e805cdacdaf|2020-11-13|2020-12-22|2020-11-13|2021-02-20|2020-11-13|2021-02-20|2021-02-20|Y|Shiloh|2021-01-12|59|YEARS|F|BLACK OR AFRICAN AMERICAN|HISPANIC OR LATINO|5-P-10|5mg - Placebo- 10mg|5-P-10|5mg - Placebo- 10mg|[?]|UMI|2021-02-18|98|
e|DM|a96323a5-4d4f-4ea4-b3da-89b8cca46ee0|a96323a5-4d4f-4ea4-b3da-89b8cca46ee0|2020-10-23|2021-01-29|2020-10-23|2021-01-30|2020-10-23|2021-01-30|||Oakley|2021-01-27|41|YEARS|M|ASIAN|NOT HISPANIC OR LATINO|P-5-10|Placebo - 5mg - 10mg|P-5-10|Placebo - 5mg - 10mg|[?]|UMI|2021-01-09|79|
e|DM|d74682f1-824e-449d-bdf1-db517d8fdf2e|d74682f1-824e-449d-bdf1-db517d8fdf2e|2020-07-30|2020-08-20|2020-07-30|2020-11-06|2020-07-30|2020-11-06|||Kukui|2020-08-29|43|YEARS|F|UNKNOWN|NOT REPORTED|5-10-P|5mg - 10mg- Placebo|5-10-P|5mg - 10mg- Placebo|[?]|UMI|2020-10-24|87|
e|DM|a3c226dc-d8f4-4fbc-b840-f1dc1b2680dd|a3c226dc-d8f4-4fbc-b840-f1dc1b2680dd|2020-11-28|2020-12-05|2020-11-28|2021-03-07|2020-11-28|2021-03-07|||Summerset Mobile Home Estates|2021-02-06|23|YEARS|M|UNKNOWN|UNKNOWN|5-10-P|5mg - 10mg- Placebo|5-10-P|5mg - 10mg- Placebo|[?]|UMI|2021-01-04|38|
e|DM|33cc0c60-b4f3-4b6c-9c7f-a4b0f536b0ac|33cc0c60-b4f3-4b6c-9c7f-a4b0f536b0ac|2020-06-23|2020-08-29|2020-06-23|2020-09-30|2020-06-23|2020-09-30|||Hillgirt|2020-07-19|44|YEARS|F|NATIVE HAWAIIAN OR OTHER PACIFIC ISLANDER|HISPANIC OR LATINO|P-5-10|Placebo - 5mg - 10mg|P-5-10|Placebo - 5mg - 10mg|[?]|UMI|2020-08-10|49|
e|DM|94c7f1e8-9703-4376-9cb2-6a1344dbf8cd|94c7f1e8-9703-4376-9cb2-6a1344dbf8cd|2020-11-08|2021-01-12|2020-11-08|2021-02-15|2020-11-08|2021-02-15|||Leota|2020-11-15|55|YEARS|F|NOT REPORTED|NOT REPORTED|5-10-P|5mg - 10mg- Placebo|5-10-P|5mg - 10mg- Placebo|[?]|UMI|2020-11-12|5|
e|DM|20abe0d2-bbe5-422b-b9a7-ae645928b0bf|20abe0d2-bbe5-422b-b9a7-ae645928b0bf|2020-10-18|2020-12-13|2020-10-18|2021-01-25|2020-10-18|2021-01-25|||Lagunas|2020-11-29|52|YEARS|F|WHITE|NOT REPORTED|5-P-10|5mg - Placebo- 10mg|5-P-10|5mg - Placebo- 10mg|[?]|UMI|2020-12-16|60|
e|DM|b5644705-65e9-4d9b-9f5c-f8f62d26e257|b5644705-65e9-4d9b-9f5c-f8f62d26e257|2020-12-15|2021-03-17|2020-12-15|2021-03-24|2020-12-15|2021-03-24|||Hydesburg (historical)|2021-03-19|63|YEARS|F|BLACK OR AFRICAN AMERICAN|NOT HISPANIC OR LATINO|5-P-10|5mg - Placebo- 10mg|5-P-10|5mg - Placebo- 10mg|[?]|UMI|2020-12-18|4|
e|DM|ec82f59b-197a-4ccc-b5e5-d91627a86a27|ec82f59b-197a-4ccc-b5e5-d91627a86a27|2020-05-07|2020-08-10|2020-05-07|2020-08-14|2020-05-07|2020-08-14|||Tecopa|2020-05-15|68|YEARS|M|ASIAN|UNKNOWN|P-5-10|Placebo - 5mg - 10mg|P-5-10|Placebo - 5mg - 10mg|[?]|UMI|2020-05-28|22|
e|DM|527fd604-110f-47b1-bd8b-b1de2f5b0d29|527fd604-110f-47b1-bd8b-b1de2f5b0d29|2020-11-20|2020-12-09|2020-11-20|2021-02-27|2020-11-20|2021-02-27|||Shady Grove|2021-02-09|73|YEARS|M|ASIAN|UNKNOWN|5-P-10|5mg - Placebo- 10mg|5-P-10|5mg - Placebo- 10mg|[?]|UMI|2021-02-20|93|
e|DM|1e1de453-920a-4132-b2f7-6335ee81ec83|1e1de453-920a-4132-b2f7-6335ee81ec83|2020-10-13|2020-11-08|2020-10-13|2021-01-20|2020-10-13|2021-01-20|||University Place|2020-11-18|68|YEARS|F|ASIAN|NOT REPORTED|5-P-10|5mg - Placebo- 10mg|5-P-10|5mg - Placebo- 10mg|[?]|UMI|2020-10-29|17|
e|DM|e553ad8e-96f4-4cb0-a005-51e9b64513b7|e553ad8e-96f4-4cb0-a005-51e9b64513b7|2020-06-20|2020-07-31|2020-06-20|2020-09-27|2020-06-20|2020-09-27|||Naisbitt|2020-07-28|21|YEARS|F|NOT REPORTED|HISPANIC OR LATINO|5-10-P|5mg - 10mg- Placebo|5-10-P|5mg - 10mg- Placebo|[?]|UMI|2020-09-22|95|
e|DM|9bd9a8ad-dafd-46e0-a51c-c086ca4e9c0c|9bd9a8ad-dafd-46e0-a51c-c086ca4e9c0c|2020-12-07|2020-12-16|2020-12-07|2021-03-16|2020-12-07|2021-03-16|||River Wood Hills|2021-01-26|36|YEARS|F|NATIVE HAWAIIAN OR OTHER PACIFIC ISLANDER|NOT HISPANIC OR LATINO|P-5-10|Placebo - 5mg - 10mg|P-5-10|Placebo - 5mg - 10mg|[?]|UMI|2020-12-29|23|
e|DM|c041c7ce-8c14-49cd-a2b2-e7e18b5bc579|c041c7ce-8c14-49cd-a2b2-e7e18b5bc579|2020-05-31|2020-07-20|2020-05-31|2020-09-07|2020-05-31|2020-09-07|||Blueville|2020-07-20|65|YEARS|M|NATIVE HAWAIIAN OR OTHER PACIFIC ISLANDER|UNKNOWN|5-P-10|5mg - Placebo- 10mg|5-P-10|5mg - Placebo- 10mg|[?]|UMI|2020-06-04|5|
e|DM|2c9752be-9479-4c18-bb2c-19ffa8dfec3a|2c9752be-9479-4c18-bb2c-19ffa8dfec3a|2020-10-20|2020-12-28|2020-10-20|2021-01-27|2020-10-20|2021-01-27|||Tunnel Hill|2020-11-29|26|YEARS|M|UNKNOWN|HISPANIC OR LATINO|5-P-10|5mg - Placebo- 10mg|5-P-10|5mg - Placebo- 10mg|[?]|UMI|2020-11-18|30|
e|DM|083f3f2b-c66c-4a98-95c6-fc2bbceecf7e|083f3f2b-c66c-4a98-95c6-fc2bbceecf7e|2020-12-15|2021-03-22|2020-12-15|2021-03-24|2020-12-15|2021-03-24|||Wampler|2021-01-13|58|YEARS|M|UNKNOWN|NOT REPORTED|5-10-P|5mg - 10mg- Placebo|5-10-P|5mg - 10mg- Placebo|[?]|UMI|2021-02-06|54|
e|DM|ad04ec90-9fd5-49f2-ae23-264273eb0a24|ad04ec90-9fd5-49f2-ae23-264273eb0a24|2020-10-08|2020-10-27|2020-10-08|2021-01-15|2020-10-08|2021-01-15|||Pope|2020-12-04|50|YEARS|M|WHITE|NOT REPORTED|P-5-10|Placebo - 5mg - 10mg|P-5-10|Placebo - 5mg - 10mg|[?]|UMI|2020-11-08|32|
e|DM|a1d203ef-7ee1-4373-988a-370532bae2b1|a1d203ef-7ee1-4373-988a-370532bae2b1|2021-01-19|2021-02-22|2021-01-19|2021-04-28|2021-01-19|2021-04-28|||Bloomingburg|2021-02-11|32|YEARS|F|WHITE|HISPANIC OR LATINO|5-10-P|5mg - 10mg- Placebo|5-10-P|5mg - 10mg- Placebo|[?]|UMI|2021-03-04|45|
e|DM|4389d158-cb51-4779-b19a-f38dbef0806a|4389d158-cb51-4779-b19a-f38dbef0806a|2020-06-13|2020-07-14|2020-06-13|2020-09-20|2020-06-13|2020-09-20|||Browns Point|2020-08-10|45|YEARS|M|ASIAN|HISPANIC OR LATINO|5-P-10|5mg - Placebo- 10mg|5-P-10|5mg - Placebo- 10mg|[?]|UMI|2020-08-28|77|
e|DM|3a973b7a-3583-4383-b59e-3dab51b511bd|3a973b7a-3583-4383-b59e-3dab51b511bd|2021-01-10|2021-04-07|2021-01-10|2021-04-19|2021-01-10|2021-04-19|||Feather Sound|2021-02-28|10|YEARS|F|AMERICAN INDIAN OR ALASKA NATIVE|HISPANIC OR LATINO|P-5-10|Placebo - 5mg - 10mg|P-5-10|Placebo - 5mg - 10mg|[?]|UMI|2021-03-28|78|
e|DM|d283591c-2085-459e-94f2-d3eb6b81aea7|d283591c-2085-459e-94f2-d3eb6b81aea7|2020-09-19|2020-09-25|2020-09-19|2020-12-27|2020-09-19|2020-12-27|||Canebrake|2020-09-28|57|YEARS|F|ASIAN|NOT HISPANIC OR LATINO|5-P-10|5mg - Placebo- 10mg|5-P-10|5mg - Placebo- 10mg|[?]|UMI|2020-11-26|69|
e|DM|da31f695-9f6a-46b2-8002-5c1c21b55cf3|da31f695-9f6a-46b2-8002-5c1c21b55cf3|2020-09-22|2020-12-26|2020-09-22|2020-12-30|2020-09-22|2020-12-30|||Mount Vernon Forest|2020-11-25|22|YEARS|M|NOT REPORTED|NOT HISPANIC OR LATINO|5-10-P|5mg - 10mg- Placebo|5-10-P|5mg - 10mg- Placebo|[?]|UMI|2020-10-03|12|
e|DM|4cd63e56-3d93-403a-8011-3b4fcf26e445|4cd63e56-3d93-403a-8011-3b4fcf26e445|2020-12-18|2021-02-02|2020-12-18|2021-03-27|2020-12-18|2021-03-27|||Linn|2021-01-28|42|YEARS|F|ASIAN|NOT HISPANIC OR LATINO|5-P-10|5mg - Placebo- 10mg|5-P-10|5mg - Placebo- 10mg|[?]|UMI|2021-03-04|77|
e|DM|379e3838-eef8-45a4-bd0b-5b8b3ec3e204|379e3838-eef8-45a4-bd0b-5b8b3ec3e204|2020-05-14|2020-07-04|2020-05-14|2020-08-21|2020-05-14|2020-08-21|||Bayview Mobile Home Park|2020-08-11|51|YEARS|M|NOT REPORTED|NOT REPORTED|5-P-10|5mg - Placebo- 10mg|5-P-10|5mg - Placebo- 10mg|[?]|UMI|2020-06-10|28|
e|DM|f31bab3b-3624-44a5-a62f-f8cf9055eec4|f31bab3b-3624-44a5-a62f-f8cf9055eec4|2020-07-31|2020-09-15|2020-07-31|2020-11-07|2020-07-31|2020-11-07|||Loy Place|2020-10-15|40|YEARS|F|UNKNOWN|UNKNOWN|5-10-P|5mg - 10mg- Placebo|5-10-P|5mg - 10mg- Placebo|[?]|UMI|2020-09-14|46|
e|DM|0b5675aa-4ec0-4548-9a0b-a13f8de89883|0b5675aa-4ec0-4548-9a0b-a13f8de89883|2020-06-19|2020-07-23|2020-06-19|2020-09-26|2020-06-19|2020-09-26|||Coxville|2020-07-07|27|YEARS|M|NOT REPORTED|UNKNOWN|5-10-P|5mg - 10mg- Placebo|5-10-P|5mg - 10mg- Placebo|[?]|UMI|2020-07-13|25|
e|DM|9bdf9856-3b2a-43db-b369-3e13868ef413|9bdf9856-3b2a-43db-b369-3e13868ef413|2021-01-14|2021-02-13|2021-01-14|2021-04-23|2021-01-14|2021-04-23|||Galilee|2021-03-25|33|YEARS|M|AMERICAN INDIAN OR ALASKA NATIVE|NOT HISPANIC OR LATINO|P-5-10|Placebo - 5mg - 10mg|P-5-10|Placebo - 5mg - 10mg|[?]|UMI|2021-03-20|66|
e|DM|5cc53922-60c0-4bce-8d4a-bc59e9203d63|5cc53922-60c0-4bce-8d4a-bc59e9203d63|2020-12-19|2021-03-17|2020-12-19|2021-03-28|2020-12-19|2021-03-28|||Mill Run|2021-02-23|27|YEARS|F|UNKNOWN|NOT REPORTED|5-10-P|5mg - 10mg- Placebo|5-10-P|5mg - 10mg- Placebo|[?]|UMI|2021-03-20|92|
e|DM|ae4761e8-2ede-43b6-8ec4-40c97add3cfa|ae4761e8-2ede-43b6-8ec4-40c97add3cfa|2020-12-20|2021-01-08|2020-12-20|2021-03-29|2020-12-20|2021-03-29|||Plainfield|2021-03-03|41|YEARS|F|BLACK OR AFRICAN AMERICAN|NOT REPORTED|5-P-10|5mg - Placebo- 10mg|5-P-10|5mg - Placebo- 10mg|[?]|UMI|2021-02-03|46|
e|DM|066281d3-27b8-439f-8340-f59115f646ef|066281d3-27b8-439f-8340-f59115f646ef|2020-10-12|2021-01-10|2020-10-12|2021-01-19|2020-10-12|2021-01-19|||Morningside|2021-01-01|19|YEARS|M|BLACK OR AFRICAN AMERICAN|HISPANIC OR LATINO|P-5-10|Placebo - 5mg - 10mg|P-5-10|Placebo - 5mg - 10mg|[?]|UMI|2020-12-27|77|
e|DM|d23cc47e-da96-4042-a69f-60097beaef0e|d23cc47e-da96-4042-a69f-60097beaef0e|2021-01-12|2021-03-27|2021-01-12|2021-04-21|2021-01-12|2021-04-21|||H and H Trailer Court|2021-03-03|58|YEARS|F|AMERICAN INDIAN OR ALASKA NATIVE|NOT HISPANIC OR LATINO|5-10-P|5mg - 10mg- Placebo|5-10-P|5mg - 10mg- Placebo|[?]|UMI|2021-03-15|63|
e|DM|b896c679-87d0-4e29-ad27-3944cf09b3ec|b896c679-87d0-4e29-ad27-3944cf09b3ec|2020-12-24|2021-01-06|2020-12-24|2021-04-02|2020-12-24|2021-04-02|||Millsboro|2021-03-24|76|YEARS|F|UNKNOWN|UNKNOWN|P-5-10|Placebo - 5mg - 10mg|P-5-10|Placebo - 5mg - 10mg|[?]|UMI|2021-01-23|31|
e|DM|6d0ec221-6eb6-4fed-806e-2bc700968333|6d0ec221-6eb6-4fed-806e-2bc700968333|2020-07-18|2020-09-05|2020-07-18|2020-10-25|2020-07-18|2020-10-25|||Hereford|2020-09-13|22|YEARS|M|NATIVE HAWAIIAN OR OTHER PACIFIC ISLANDER|HISPANIC OR LATINO|5-10-P|5mg - 10mg- Placebo|5-10-P|5mg - 10mg- Placebo|[?]|UMI|2020-10-04|79|
e|DM|1ba07712-d5a0-41a5-b5ee-636fa0bce22a|1ba07712-d5a0-41a5-b5ee-636fa0bce22a|2020-09-24|2020-11-26|2020-09-24|2021-01-01|2020-09-24|2021-01-01|||Birch Grove Mobile Home Park|2020-11-21|33|YEARS|M|AMERICAN INDIAN OR ALASKA NATIVE|UNKNOWN|P-5-10|Placebo - 5mg - 10mg|P-5-10|Placebo - 5mg - 10mg|[?]|UMI|2020-10-01|8|
e|DM|15e5e7ca-b832-450c-a20c-b21585086328|15e5e7ca-b832-450c-a20c-b21585086328|2020-12-27|2021-01-20|2020-12-27|2021-04-05|2020-12-27|2021-04-05|||Blevins Acre|2021-03-08|65|YEARS|M|UNKNOWN|HISPANIC OR LATINO|P-5-10|Placebo - 5mg - 10mg|P-5-10|Placebo - 5mg - 10mg|[?]|UMI|2021-02-01|37|
e|DM|b46ff3a2-f257-4803-8064-e29bd1114bfc|b46ff3a2-f257-4803-8064-e29bd1114bfc|2020-10-04|2020-11-21|2020-10-04|2021-01-11|2020-10-04|2021-01-11|||Forest Pines|2021-01-04|49|YEARS|M|NATIVE HAWAIIAN OR OTHER PACIFIC ISLANDER|NOT REPORTED|5-P-10|5mg - Placebo- 10mg|5-P-10|5mg - Placebo- 10mg|[?]|UMI|2020-11-27|55|
e|DM|b269c0ea-d3db-4052-9dc7-a55ac59d82a6|b269c0ea-d3db-4052-9dc7-a55ac59d82a6|2020-11-27|2021-01-23|2020-11-27|2021-03-06|2020-11-27|2021-03-06|||Gardner|2020-12-17|52|YEARS|F|WHITE|NOT REPORTED|P-5-10|Placebo - 5mg - 10mg|P-5-10|Placebo - 5mg - 10mg|[?]|UMI|2021-02-08|74|
e|DM|a5c667d1-d2ac-49f7-ad44-bf9a44762025|a5c667d1-d2ac-49f7-ad44-bf9a44762025|2020-09-27|2020-12-04|2020-09-27|2021-01-04|2020-09-27|2021-01-04|||Broadmead|2020-10-14|56|YEARS|M|ASIAN|NOT REPORTED|5-P-10|5mg - Placebo- 10mg|5-P-10|5mg - Placebo- 10mg|[?]|UMI|2020-10-04|8|
e|DM|944a2627-13f1-4ecf-9545-8819a1327138|944a2627-13f1-4ecf-9545-8819a1327138|2021-01-08|2021-02-12|2021-01-08|2021-04-17|2021-01-08|2021-04-17|||Nebo Gardens|2021-02-22|68|YEARS|M|WHITE|HISPANIC OR LATINO|P-5-10|Placebo - 5mg - 10mg|P-5-10|Placebo - 5mg - 10mg|[?]|UMI|2021-02-22|46|
e|DM|7902955a-6336-45e5-a15d-7c368a28ac4f|7902955a-6336-45e5-a15d-7c368a28ac4f|2020-05-23|2020-07-31|2020-05-23|2020-08-30|2020-05-23|2020-08-30|||Baskin Hills|2020-06-14|26|YEARS|M|AMERICAN INDIAN OR ALASKA NATIVE|NOT HISPANIC OR LATINO|5-10-P|5mg - 10mg- Placebo|5-10-P|5mg - 10mg- Placebo|[?]|UMI|2020-05-28|6|
e|DM|aeef8a2d-167c-41e7-baa6-a3dc756bbb49|aeef8a2d-167c-41e7-baa6-a3dc756bbb49|2020-12-11|2021-02-10|2020-12-11|2021-03-20|2020-12-11|2021-03-20|||Auburn Lake Trails|2021-03-17|12|YEARS|F|NATIVE HAWAIIAN OR OTHER PACIFIC ISLANDER|HISPANIC OR LATINO|5-P-10|5mg - Placebo- 10mg|5-P-10|5mg - Placebo- 10mg|[?]|UMI|2021-01-18|39|
e|DM|6071d81f-2f38-414f-90ca-4ad80c971054|6071d81f-2f38-414f-90ca-4ad80c971054|2020-08-29|2020-09-09|2020-08-29|2020-12-06|2020-08-29|2020-12-06|||Taylor Mill|2020-11-23|47|YEARS|F|BLACK OR AFRICAN AMERICAN|NOT REPORTED|5-P-10|5mg - Placebo- 10mg|5-P-10|5mg - Placebo- 10mg|[?]|UMI|2020-10-03|36|
e|DM|22ffaa50-941f-4d52-b73b-84e13d2bb4bd|22ffaa50-941f-4d52-b73b-84e13d2bb4bd|2020-09-19|2020-09-30|2020-09-19|2020-12-27|2020-09-19|2020-12-27|||Moko|2020-12-25|63|YEARS|F|BLACK OR AFRICAN AMERICAN|NOT HISPANIC OR LATINO|P-5-10|Placebo - 5mg - 10mg|P-5-10|Placebo - 5mg - 10mg|[?]|UMI|2020-10-30|42|
e|DM|a046d48d-b1fa-4d46-902e-3984aed00ec7|a046d48d-b1fa-4d46-902e-3984aed00ec7|2020-07-23|2020-10-15|2020-07-23|2020-10-30|2020-07-23|2020-10-30|||Harmony Grove|2020-10-29|78|YEARS|F|UNKNOWN|UNKNOWN|5-10-P|5mg - 10mg- Placebo|5-10-P|5mg - 10mg- Placebo|[?]|UMI|2020-09-06|46|
e|DM|8b60e1b0-2cd9-419d-b345-9006af042932|8b60e1b0-2cd9-419d-b345-9006af042932|2020-12-07|2020-12-29|2020-12-07|2021-03-16|2020-12-07|2021-03-16|||Hillsdale|2021-03-06|71|YEARS|M|AMERICAN INDIAN OR ALASKA NATIVE|NOT REPORTED|P-5-10|Placebo - 5mg - 10mg|P-5-10|Placebo - 5mg - 10mg|[?]|UMI|2021-03-05|89|
e|DM|712029bc-471a-4e3d-9123-e38b3c38bc6c|712029bc-471a-4e3d-9123-e38b3c38bc6c|2021-01-15|2021-04-13|2021-01-15|2021-04-24|2021-01-15|2021-04-24|||Locksley|2021-02-22|53|YEARS|F|BLACK OR AFRICAN AMERICAN|UNKNOWN|5-P-10|5mg - Placebo- 10mg|5-P-10|5mg - Placebo- 10mg|[?]|UMI|2021-04-05|81|
e|DM|92c0183d-5704-45ad-9aec-e24bc5777b80|92c0183d-5704-45ad-9aec-e24bc5777b80|2021-01-11|2021-01-27|2021-01-11|2021-04-20|2021-01-11|2021-04-20|||Old Grand Glaise|2021-03-21|73|YEARS|F|AMERICAN INDIAN OR ALASKA NATIVE|HISPANIC OR LATINO|5-10-P|5mg - 10mg- Placebo|5-10-P|5mg - 10mg- Placebo|[?]|UMI|2021-04-14|94|
e|DM|52ce3b1f-9500-4323-861d-73c8b96f59de|52ce3b1f-9500-4323-861d-73c8b96f59de|2020-10-17|2020-10-29|2020-10-17|2021-01-24|2020-10-17|2021-01-24|||Hyde Park|2020-11-30|60|YEARS|M|NOT REPORTED|NOT HISPANIC OR LATINO|5-10-P|5mg - 10mg- Placebo|5-10-P|5mg - 10mg- Placebo|[?]|UMI|2020-12-27|72|
e|DM|3655d198-2e7e-419e-8337-d7eea7d795ca|3655d198-2e7e-419e-8337-d7eea7d795ca|2020-11-14|2020-12-10|2020-11-14|2021-02-21|2020-11-14|2021-02-21|||Little Scioto (historical)|2020-11-22|49|YEARS|F|BLACK OR AFRICAN AMERICAN|HISPANIC OR LATINO|P-5-10|Placebo - 5mg - 10mg|P-5-10|Placebo - 5mg - 10mg|[?]|UMI|2020-11-19|6|
e|DM|d47da6bf-8abf-4b62-8bb8-797155981158|d47da6bf-8abf-4b62-8bb8-797155981158|2020-09-01|2020-10-31|2020-09-01|2020-12-09|2020-09-01|2020-12-09|||Elkhorn Village|2020-11-20|46|YEARS|M|NOT REPORTED|UNKNOWN|5-P-10|5mg - Placebo- 10mg|5-P-10|5mg - Placebo- 10mg|[?]|UMI|2020-10-13|43|
e|DM|25e81c81-8c23-4c9e-be79-35247384dd1f|25e81c81-8c23-4c9e-be79-35247384dd1f|2020-07-30|2020-10-06|2020-07-30|2020-11-06|2020-07-30|2020-11-06|||Forest Lakes|2020-08-26|47|YEARS|F|BLACK OR AFRICAN AMERICAN|NOT REPORTED|5-10-P|5mg - 10mg- Placebo|5-10-P|5mg - 10mg- Placebo|[?]|UMI|2020-08-19|21|
e|DM|4fd91c6c-3bc6-498a-a977-ee834c3bcb97|4fd91c6c-3bc6-498a-a977-ee834c3bcb97|2020-07-18|2020-09-25|2020-07-18|2020-10-25|2020-07-18|2020-10-25|||Jefferson Meadows|2020-07-29|30|YEARS|F|NOT REPORTED|NOT HISPANIC OR LATINO|P-5-10|Placebo - 5mg - 10mg|P-5-10|Placebo - 5mg - 10mg|[?]|UMI|2020-09-08|53|
e|DM|21d29ae6-bb12-4c5c-b32a-32ab4ddcf547|21d29ae6-bb12-4c5c-b32a-32ab4ddcf547|2020-11-03|2021-01-19|2020-11-03|2021-02-10|2020-11-03|2021-02-10|||Silver Hill|2020-12-21|43|YEARS|F|NATIVE HAWAIIAN OR OTHER PACIFIC ISLANDER|HISPANIC OR LATINO|5-10-P|5mg - 10mg- Placebo|5-10-P|5mg - 10mg- Placebo|[?]|UMI|2020-11-22|20|
e|DM|5ba70148-c29b-47af-9280-10d1a942380a|5ba70148-c29b-47af-9280-10d1a942380a|2020-11-19|2020-12-14|2020-11-19|2021-02-26|2020-11-19|2021-02-26|||Mid Country View|2020-12-16|33|YEARS|F|NOT REPORTED|UNKNOWN|5-P-10|5mg - Placebo- 10mg|5-P-10|5mg - Placebo- 10mg|[?]|UMI|2021-02-20|94|
e|DM|93b3c298-d81f-4d71-9c5d-ba5b4d4bdf42|93b3c298-d81f-4d71-9c5d-ba5b4d4bdf42|2020-05-18|2020-06-30|2020-05-18|2020-08-25|2020-05-18|2020-08-25|||La Marque|2020-08-10|67|YEARS|F|UNKNOWN|UNKNOWN|P-5-10|Placebo - 5mg - 10mg|P-5-10|Placebo - 5mg - 10mg|[?]|UMI|2020-06-19|33|
e|DM|2d8f8b1e-7914-400b-afc5-8dc23a626d76|2d8f8b1e-7914-400b-afc5-8dc23a626d76|2020-06-10|2020-07-12|2020-06-10|2020-09-17|2020-06-10|2020-09-17|||Colonia Allende|2020-07-18|10|YEARS|M|WHITE|HISPANIC OR LATINO|5-P-10|5mg - Placebo- 10mg|5-P-10|5mg - Placebo- 10mg|[?]|UMI|2020-08-23|75|
e|DM|9d3f5b5e-ebd4-4540-8b4d-14733497ed8e|9d3f5b5e-ebd4-4540-8b4d-14733497ed8e|2020-08-11|2020-09-05|2020-08-11|2020-11-18|2020-08-11|2020-11-18|||Casas de Moya|2020-11-12|29|YEARS|M|BLACK OR AFRICAN AMERICAN|NOT REPORTED|5-10-P|5mg - 10mg- Placebo|5-10-P|5mg - 10mg- Placebo|[?]|ESP|2020-11-17|99|
e|DM|a73142e4-e34b-4144-b95f-7a5562574c1b|a73142e4-e34b-4144-b95f-7a5562574c1b|2020-07-30|2020-09-26|2020-07-30|2020-11-06|2020-07-30|2020-11-06|||Grijo|2020-09-25|66|YEARS|M|AMERICAN INDIAN OR ALASKA NATIVE|NOT REPORTED|5-P-10|5mg - Placebo- 10mg|5-P-10|5mg - Placebo- 10mg|[?]|ESP|2020-10-13|76|
e|DM|a9bdb550-aa73-4194-a4b1-c69fa5dd2d4b|a9bdb550-aa73-4194-a4b1-c69fa5dd2d4b|2020-05-25|2020-06-24|2020-05-25|2020-09-01|2020-05-25|2020-09-01|||Caserio El Amunt|2020-05-29|66|YEARS|M|NOT REPORTED|NOT REPORTED|5-10-P|5mg - 10mg- Placebo|5-10-P|5mg - 10mg- Placebo|[?]|ESP|2020-06-16|23|
e|DM|0f682806-b63c-4c3f-9fda-1e59befbd3a3|0f682806-b63c-4c3f-9fda-1e59befbd3a3|2020-05-20|2020-06-10|2020-05-20|2020-08-27|2020-05-20|2020-08-27|||Leria|2020-06-29|36|YEARS|F|AMERICAN INDIAN OR ALASKA NATIVE|HISPANIC OR LATINO|5-10-P|5mg - 10mg- Placebo|5-10-P|5mg - 10mg- Placebo|[?]|ESP|2020-07-19|61|
e|DM|1d8aba56-f62e-4116-b447-899dedd3d4df|1d8aba56-f62e-4116-b447-899dedd3d4df|2020-09-20|2020-12-20|2020-09-20|2020-12-28|2020-09-20|2020-12-28|||Cortijo Grande|2020-12-17|23|YEARS|M|WHITE|NOT HISPANIC OR LATINO|P-5-10|Placebo - 5mg - 10mg|P-5-10|Placebo - 5mg - 10mg|[?]|ESP|2020-12-27|99|
e|DM|77bbd5c9-a7c4-43d1-a392-5dd44cfbfe4f|77bbd5c9-a7c4-43d1-a392-5dd44cfbfe4f|2020-08-05|2020-10-30|2020-08-05|2020-11-12|2020-08-05|2020-11-12|||Vallarta de Bureba|2020-09-05|80|YEARS|M|WHITE|NOT REPORTED|P-5-10|Placebo - 5mg - 10mg|P-5-10|Placebo - 5mg - 10mg|[?]|ESP|2020-10-23|80|
e|DM|383d3f30-14b7-48c3-b1a8-0f481ef37a50|383d3f30-14b7-48c3-b1a8-0f481ef37a50|2020-05-29|2020-07-30|2020-05-29|2020-09-05|2020-05-29|2020-09-05|||Cortijada Los Amarguillos|2020-07-27|61|YEARS|M|NOT REPORTED|NOT REPORTED|5-10-P|5mg - 10mg- Placebo|5-10-P|5mg - 10mg- Placebo|[?]|ESP|2020-08-24|88|
e|DM|b4f81b74-fee9-4544-9404-206d931ed8e5|b4f81b74-fee9-4544-9404-206d931ed8e5|2020-10-09|2020-10-26|2020-10-09|2021-01-16|2020-10-09|2021-01-16|||Fuenferrada|2020-10-31|13|YEARS|M|BLACK OR AFRICAN AMERICAN|NOT HISPANIC OR LATINO|P-5-10|Placebo - 5mg - 10mg|P-5-10|Placebo - 5mg - 10mg|[?]|ESP|2020-12-26|79|
e|DM|9e69b457-20db-45e5-a535-0cd8ac102fea|9e69b457-20db-45e5-a535-0cd8ac102fea|2020-05-29|2020-07-22|2020-05-29|2020-09-05|2020-05-29|2020-09-05|||Moli Azor|2020-07-12|50|YEARS|M|WHITE|NOT HISPANIC OR LATINO|P-5-10|Placebo - 5mg - 10mg|P-5-10|Placebo - 5mg - 10mg|[?]|ESP|2020-08-31|95|
e|DM|14211798-ddf6-47c8-bd9d-056d95bad8ff|14211798-ddf6-47c8-bd9d-056d95bad8ff|2020-09-17|2020-10-06|2020-09-17|2020-12-25|2020-09-17|2020-12-25|||Maria de Huerva|2020-12-15|10|YEARS|F|UNKNOWN|UNKNOWN|P-5-10|Placebo - 5mg - 10mg|P-5-10|Placebo - 5mg - 10mg|[?]|ESP|2020-12-06|81|
e|DM|63f3194e-9b88-491a-9a68-19109ed86e2b|63f3194e-9b88-491a-9a68-19109ed86e2b|2020-06-01|2020-09-01|2020-06-01|2020-09-08|2020-06-01|2020-09-08|||Galar|2020-07-23|28|YEARS|M|ASIAN|HISPANIC OR LATINO|5-10-P|5mg - 10mg- Placebo|5-10-P|5mg - 10mg- Placebo|[?]|ESP|2020-09-04|96|
e|DM|b6208258-d7c2-4dde-addf-4677946ab165|b6208258-d7c2-4dde-addf-4677946ab165|2020-09-11|2020-10-07|2020-09-11|2020-12-19|2020-09-11|2020-12-19|||Dehesa de Aljabaras|2020-10-19|40|YEARS|M|BLACK OR AFRICAN AMERICAN|HISPANIC OR LATINO|5-P-10|5mg - Placebo- 10mg|5-P-10|5mg - Placebo- 10mg|[?]|ESP|2020-09-13|3|
e|DM|a669a7b9-2034-4bca-aa80-0371c5fb46d3|a669a7b9-2034-4bca-aa80-0371c5fb46d3|2021-01-17|2021-02-03|2021-01-17|2021-04-26|2021-01-17|2021-04-26|||El Cadabal|2021-03-15|24|YEARS|M|NOT REPORTED|NOT REPORTED|P-5-10|Placebo - 5mg - 10mg|P-5-10|Placebo - 5mg - 10mg|[?]|ESP|2021-02-15|30|
e|DM|e148c13d-ee41-4503-a7e5-397dd6155f04|e148c13d-ee41-4503-a7e5-397dd6155f04|2020-07-09|2020-07-28|2020-07-09|2020-10-16|2020-07-09|2020-10-16|||Caserio Molinar|2020-08-11|60|YEARS|M|NATIVE HAWAIIAN OR OTHER PACIFIC ISLANDER|HISPANIC OR LATINO|P-5-10|Placebo - 5mg - 10mg|P-5-10|Placebo - 5mg - 10mg|[?]|ESP|2020-07-15|7|
e|DM|815de94a-f259-41ee-8951-8df150184a25|815de94a-f259-41ee-8951-8df150184a25|2020-06-28|2020-08-29|2020-06-28|2020-10-05|2020-06-28|2020-10-05|||Puebla de Azaba|2020-09-07|56|YEARS|F|NOT REPORTED|UNKNOWN|5-P-10|5mg - Placebo- 10mg|5-P-10|5mg - Placebo- 10mg|[?]|ESP|2020-10-03|98|
e|DM|c897cd09-0cbc-4a2f-a902-1c736a6c3a02|c897cd09-0cbc-4a2f-a902-1c736a6c3a02|2020-05-07|2020-08-02|2020-05-07|2020-08-14|2020-05-07|2020-08-14|||Fraga|2020-06-07|34|YEARS|F|WHITE|NOT HISPANIC OR LATINO|5-10-P|5mg - 10mg- Placebo|5-10-P|5mg - 10mg- Placebo|[?]|ESP|2020-05-21|15|
e|DM|d68e5fe0-ab34-4565-9e5d-6ff1f72217f1|d68e5fe0-ab34-4565-9e5d-6ff1f72217f1|2021-01-16|2021-01-21|2021-01-16|2021-04-25|2021-01-16|2021-04-25|||Pozuel de Ariza|2021-01-30|78|YEARS|M|ASIAN|NOT HISPANIC OR LATINO|5-10-P|5mg - 10mg- Placebo|5-10-P|5mg - 10mg- Placebo|[?]|ESP|2021-02-05|21|
e|DM|a616ef00-05d6-459a-8474-06ab3eb493b1|a616ef00-05d6-459a-8474-06ab3eb493b1|2020-09-16|2020-10-27|2020-09-16|2020-12-24|2020-09-16|2020-12-24|||Casas del Obrero|2020-10-25|33|YEARS|F|AMERICAN INDIAN OR ALASKA NATIVE|UNKNOWN|P-5-10|Placebo - 5mg - 10mg|P-5-10|Placebo - 5mg - 10mg|[?]|ESP|2020-12-17|93|
e|DM|a6cbce6b-ec22-4f4e-9990-b2c106a4554e|a6cbce6b-ec22-4f4e-9990-b2c106a4554e|2020-08-11|2020-08-14|2020-08-11|2020-11-18|2020-08-11|2020-11-18|||Berninches|2020-09-02|46|YEARS|F|WHITE|UNKNOWN|5-P-10|5mg - Placebo- 10mg|5-P-10|5mg - Placebo- 10mg|[?]|ESP|2020-11-11|93|
e|DM|870f5f68-aa8a-4484-8d9d-febc7d5b83a2|870f5f68-aa8a-4484-8d9d-febc7d5b83a2|2020-10-12|2021-01-18|2020-10-12|2021-01-19|2020-10-12|2021-01-19|||Moralina|2020-11-29|52|YEARS|F|NOT REPORTED|NOT HISPANIC OR LATINO|P-5-10|Placebo - 5mg - 10mg|P-5-10|Placebo - 5mg - 10mg|[?]|ESP|2020-12-11|61|
e|DM|ffbb87da-c0a3-4acf-94e2-b1473cbd60e3|ffbb87da-c0a3-4acf-94e2-b1473cbd60e3|2020-06-25|2020-06-26|2020-06-25|2020-10-02|2020-06-25|2020-10-02|||Son del Puerto|2020-08-28|26|YEARS|M|BLACK OR AFRICAN AMERICAN|NOT HISPANIC OR LATINO|P-5-10|Placebo - 5mg - 10mg|P-5-10|Placebo - 5mg - 10mg|[?]|ESP|2020-07-27|33|
e|DM|2014bcd0-1430-4096-87f5-650a01dae626|2014bcd0-1430-4096-87f5-650a01dae626|2020-05-22|2020-08-17|2020-05-22|2020-08-29|2020-05-22|2020-08-29|||Ribas de Campos|2020-08-27|16|YEARS|F|BLACK OR AFRICAN AMERICAN|NOT REPORTED|5-10-P|5mg - 10mg- Placebo|5-10-P|5mg - 10mg- Placebo|[?]|ESP|2020-07-03|43|
e|DM|e043f1b3-6b65-45c0-bdae-eb783406c263|e043f1b3-6b65-45c0-bdae-eb783406c263|2020-11-02|2021-01-01|2020-11-02|2021-02-09|2020-11-02|2021-02-09|||San Esteban|2021-02-06|39|YEARS|F|NOT REPORTED|HISPANIC OR LATINO|5-10-P|5mg - 10mg- Placebo|5-10-P|5mg - 10mg- Placebo|[?]|ESP|2020-11-23|22|
e|DM|45623c39-86de-4b2f-bf2d-998d0e941e92|45623c39-86de-4b2f-bf2d-998d0e941e92|2020-07-13|2020-09-01|2020-07-13|2020-10-20|2020-07-13|2020-10-20|2020-10-20|Y|Noceda|2020-07-26|50|YEARS|M|UNKNOWN|UNKNOWN|5-P-10|5mg - Placebo- 10mg|5-P-10|5mg - Placebo- 10mg|[?]|ESP|2020-09-19|69|
e|DM|a753f9c8-2f9a-4f54-80e0-b080e82dcb94|a753f9c8-2f9a-4f54-80e0-b080e82dcb94|2020-10-09|2020-11-06|2020-10-09|2021-01-16|2020-10-09|2021-01-16|||Torre Val de San Pedro|2020-10-19|28|YEARS|F|WHITE|HISPANIC OR LATINO|5-P-10|5mg - Placebo- 10mg|5-P-10|5mg - Placebo- 10mg|[?]|ESP|2020-12-20|73|
e|DM|e5a105f7-38ac-4f19-aace-4149ed9b1100|e5a105f7-38ac-4f19-aace-4149ed9b1100|2020-08-25|2020-09-10|2020-08-25|2020-12-02|2020-08-25|2020-12-02|||Pineira|2020-11-07|44|YEARS|M|AMERICAN INDIAN OR ALASKA NATIVE|UNKNOWN|5-P-10|5mg - Placebo- 10mg|5-P-10|5mg - Placebo- 10mg|[?]|ESP|2020-09-11|18|
e|DM|c568ab93-8e7f-4e4e-9685-f0c13f293606|c568ab93-8e7f-4e4e-9685-f0c13f293606|2021-01-05|2021-04-12|2021-01-05|2021-04-14|2021-01-05|2021-04-14|||El Acebuche|2021-03-03|37|YEARS|M|NOT REPORTED|NOT REPORTED|5-P-10|5mg - Placebo- 10mg|5-P-10|5mg - Placebo- 10mg|[?]|ESP|2021-01-20|16|
e|DM|bccd8af0-2ecf-4091-92e4-681597b57ca4|bccd8af0-2ecf-4091-92e4-681597b57ca4|2020-09-21|2020-12-25|2020-09-21|2020-12-29|2020-09-21|2020-12-29|||Santiago|2020-10-21|45|YEARS|M|ASIAN|HISPANIC OR LATINO|5-10-P|5mg - 10mg- Placebo|5-10-P|5mg - 10mg- Placebo|[?]|ESP|2020-10-31|41|
e|DM|bf069a02-03a6-4013-b16d-d7c954a6cc3d|bf069a02-03a6-4013-b16d-d7c954a6cc3d|2020-07-28|2020-10-13|2020-07-28|2020-11-04|2020-07-28|2020-11-04|||Caserio Los Quiles|2020-09-05|45|YEARS|F|WHITE|NOT HISPANIC OR LATINO|5-10-P|5mg - 10mg- Placebo|5-10-P|5mg - 10mg- Placebo|[?]|ESP|2020-10-05|70|
e|DM|c40fc52b-2668-4fab-b051-5b258da72f2c|c40fc52b-2668-4fab-b051-5b258da72f2c|2020-10-02|2020-12-12|2020-10-02|2021-01-09|2020-10-02|2021-01-09|||Arbacegui|2020-10-27|48|YEARS|M|ASIAN|UNKNOWN|5-10-P|5mg - 10mg- Placebo|5-10-P|5mg - 10mg- Placebo|[?]|ESP|2021-01-07|98|
e|DM|d7c792d8-fc98-41ab-8a9e-59de1e186a06|d7c792d8-fc98-41ab-8a9e-59de1e186a06|2020-07-19|2020-07-28|2020-07-19|2020-10-26|2020-07-19|2020-10-26|||Lasaga|2020-09-22|79|YEARS|M|ASIAN|HISPANIC OR LATINO|5-10-P|5mg - 10mg- Placebo|5-10-P|5mg - 10mg- Placebo|[?]|ESP|2020-08-17|30|
e|DM|f7773659-f207-4b29-8389-3aa766a6337a|f7773659-f207-4b29-8389-3aa766a6337a|2020-10-10|2020-11-16|2020-10-10|2021-01-17|2020-10-10|2021-01-17|||Sardon de los Frailes|2020-10-24|16|YEARS|F|BLACK OR AFRICAN AMERICAN|NOT HISPANIC OR LATINO|P-5-10|Placebo - 5mg - 10mg|P-5-10|Placebo - 5mg - 10mg|[?]|ESP|2020-12-15|67|
e|DM|9fa8c7af-c759-420d-a548-cc24c7ddbcdf|9fa8c7af-c759-420d-a548-cc24c7ddbcdf|2020-12-29|2021-03-07|2020-12-29|2021-04-07|2020-12-29|2021-04-07|||Caserio Almayate Alto|2021-01-20|13|YEARS|F|UNKNOWN|NOT REPORTED|5-10-P|5mg - 10mg- Placebo|5-10-P|5mg - 10mg- Placebo|[?]|ESP|2021-01-26|29|
e|DM|c0b85664-0ef6-4f93-8f84-ee87e1ca9f0f|c0b85664-0ef6-4f93-8f84-ee87e1ca9f0f|2021-01-17|2021-03-03|2021-01-17|2021-04-26|2021-01-17|2021-04-26|||Hormazuela|2021-01-24|60|YEARS|M|ASIAN|NOT REPORTED|5-10-P|5mg - 10mg- Placebo|5-10-P|5mg - 10mg- Placebo|[?]|ESP|2021-03-31|74|
e|DM|700049a2-ef66-466b-b1d8-f0800bcfde43|700049a2-ef66-466b-b1d8-f0800bcfde43|2020-06-18|2020-07-02|2020-06-18|2020-09-25|2020-06-18|2020-09-25|||Campos del Puerto|2020-07-27|65|YEARS|F|AMERICAN INDIAN OR ALASKA NATIVE|NOT HISPANIC OR LATINO|P-5-10|Placebo - 5mg - 10mg|P-5-10|Placebo - 5mg - 10mg|[?]|ESP|2020-09-23|98|
e|DM|00d906a6-2d14-4199-aff9-524388c5117f|00d906a6-2d14-4199-aff9-524388c5117f|2020-11-15|2021-01-31|2020-11-15|2021-02-22|2020-11-15|2021-02-22|||Arcos de la Cantera|2021-01-18|46|YEARS|M|NATIVE HAWAIIAN OR OTHER PACIFIC ISLANDER|NOT REPORTED|5-P-10|5mg - Placebo- 10mg|5-P-10|5mg - Placebo- 10mg|[?]|ESP|2020-12-30|46|
e|DM|2fcc5910-bce0-4510-b17e-3925850d6d32|2fcc5910-bce0-4510-b17e-3925850d6d32|2020-12-07|2021-02-22|2020-12-07|2021-03-16|2020-12-07|2021-03-16|||Urbanizacion Rodazul|2021-01-22|68|YEARS|F|NOT REPORTED|NOT REPORTED|5-P-10|5mg - Placebo- 10mg|5-P-10|5mg - Placebo- 10mg|[?]|ESP|2021-02-12|68|
e|DM|a17fa9ed-b1fa-451c-8f51-ed1ab1b75366|a17fa9ed-b1fa-451c-8f51-ed1ab1b75366|2020-08-22|2020-10-26|2020-08-22|2020-11-29|2020-08-22|2020-11-29|||Caserio Villarico|2020-09-17|34|YEARS|M|BLACK OR AFRICAN AMERICAN|NOT REPORTED|P-5-10|Placebo - 5mg - 10mg|P-5-10|Placebo - 5mg - 10mg|[?]|ESP|2020-10-23|63|
e|DM|6020ccb5-0bbe-4318-b99f-7a69b10b85a4|6020ccb5-0bbe-4318-b99f-7a69b10b85a4|2020-07-17|2020-08-09|2020-07-17|2020-10-24|2020-07-17|2020-10-24|||Rieiro|2020-09-19|18|YEARS|M|ASIAN|UNKNOWN|5-P-10|5mg - Placebo- 10mg|5-P-10|5mg - Placebo- 10mg|[?]|ESP|2020-10-03|79|
e|DM|b6e22f6b-25a9-4d18-8de1-2bb4c261e4c9|b6e22f6b-25a9-4d18-8de1-2bb4c261e4c9|2020-10-19|2020-12-29|2020-10-19|2021-01-26|2020-10-19|2021-01-26|||Calnegre|2020-12-21|54|YEARS|F|ASIAN|HISPANIC OR LATINO|5-10-P|5mg - 10mg- Placebo|5-10-P|5mg - 10mg- Placebo|[?]|ESP|2020-11-09|22|
e|DM|ff163542-abec-4260-b257-f15a11e580ee|ff163542-abec-4260-b257-f15a11e580ee|2020-08-07|2020-09-01|2020-08-07|2020-11-14|2020-08-07|2020-11-14|||Picarzos|2020-08-29|32|YEARS|F|NATIVE HAWAIIAN OR OTHER PACIFIC ISLANDER|NOT HISPANIC OR LATINO|5-P-10|5mg - Placebo- 10mg|5-P-10|5mg - Placebo- 10mg|[?]|ESP|2020-10-27|82|
e|DM|bb73f732-a52f-4013-9ae6-60ff23b9c224|bb73f732-a52f-4013-9ae6-60ff23b9c224|2020-07-27|2020-10-02|2020-07-27|2020-11-03|2020-07-27|2020-11-03|2020-11-03|Y|Fuente de Oro|2020-09-17|21|YEARS|M|NATIVE HAWAIIAN OR OTHER PACIFIC ISLANDER|HISPANIC OR LATINO|P-5-10|Placebo - 5mg - 10mg|P-5-10|Placebo - 5mg - 10mg|[?]|ESP|2020-08-19|24|
e|DM|56fd91d0-502c-4e19-b7df-1e7dd2ad3cd5|56fd91d0-502c-4e19-b7df-1e7dd2ad3cd5|2020-07-12|2020-07-23|2020-07-12|2020-10-19|2020-07-12|2020-10-19|||Eulate|2020-07-15|52|YEARS|M|AMERICAN INDIAN OR ALASKA NATIVE|NOT HISPANIC OR LATINO|P-5-10|Placebo - 5mg - 10mg|P-5-10|Placebo - 5mg - 10mg|[?]|ESP|2020-09-17|68|
e|DM|8e056558-ffd2-4c43-bbfa-40914b38af34|8e056558-ffd2-4c43-bbfa-40914b38af34|2021-01-20|2021-02-21|2021-01-20|2021-04-29|2021-01-20|2021-04-29|||Olquina|2021-04-22|41|YEARS|M|AMERICAN INDIAN OR ALASKA NATIVE|NOT HISPANIC OR LATINO|P-5-10|Placebo - 5mg - 10mg|P-5-10|Placebo - 5mg - 10mg|[?]|ESP|2021-03-27|67|
e|DM|b7ffe7f2-7eb9-42a1-a548-9f26ee72799b|b7ffe7f2-7eb9-42a1-a548-9f26ee72799b|2020-05-20|2020-07-29|2020-05-20|2020-08-27|2020-05-20|2020-08-27|||El Gurb|2020-06-22|13|YEARS|F|UNKNOWN|NOT HISPANIC OR LATINO|5-10-P|5mg - 10mg- Placebo|5-10-P|5mg - 10mg- Placebo|[?]|ESP|2020-08-05|78|
e|DM|624c1353-347a-417d-9aab-7f1e7077ba7f|624c1353-347a-417d-9aab-7f1e7077ba7f|2020-08-19|2020-08-28|2020-08-19|2020-11-26|2020-08-19|2020-11-26|||Crespos|2020-09-22|74|YEARS|F|UNKNOWN|UNKNOWN|P-5-10|Placebo - 5mg - 10mg|P-5-10|Placebo - 5mg - 10mg|[?]|ESP|2020-09-15|28|
e|DM|ef1cddb8-f4ce-45c4-8671-32fe95f00993|ef1cddb8-f4ce-45c4-8671-32fe95f00993|2020-07-24|2020-10-02|2020-07-24|2020-10-31|2020-07-24|2020-10-31|||Azorera|2020-08-06|33|YEARS|M|AMERICAN INDIAN OR ALASKA NATIVE|HISPANIC OR LATINO|5-10-P|5mg - 10mg- Placebo|5-10-P|5mg - 10mg- Placebo|[?]|ESP|2020-09-12|51|
e|DM|da6294b5-de91-4bf7-b160-55d22fefcb07|da6294b5-de91-4bf7-b160-55d22fefcb07|2020-06-19|2020-08-22|2020-06-19|2020-09-26|2020-06-19|2020-09-26|||Ferreras de Abajo|2020-09-03|69|YEARS|M|BLACK OR AFRICAN AMERICAN|UNKNOWN|5-10-P|5mg - 10mg- Placebo|5-10-P|5mg - 10mg- Placebo|[?]|ESP|2020-07-30|42|
e|DM|c01c16d4-7a37-421d-9191-1874eba6a1e3|c01c16d4-7a37-421d-9191-1874eba6a1e3|2020-09-30|2020-11-13|2020-09-30|2021-01-07|2020-09-30|2021-01-07|||Filgueira|2020-11-15|76|YEARS|M|WHITE|HISPANIC OR LATINO|P-5-10|Placebo - 5mg - 10mg|P-5-10|Placebo - 5mg - 10mg|[?]|ESP|2020-10-07|8|
e|DM|6036407d-5ac8-400d-91f7-afd63f3cab88|6036407d-5ac8-400d-91f7-afd63f3cab88|2020-06-13|2020-07-12|2020-06-13|2020-09-20|2020-06-13|2020-09-20|||Cuevas del Molino de las Dos Piedras|2020-07-04|18|YEARS|M|ASIAN|NOT HISPANIC OR LATINO|P-5-10|Placebo - 5mg - 10mg|P-5-10|Placebo - 5mg - 10mg|[?]|ESP|2020-09-06|86|
e|DM|69cf0c4b-13f6-4955-8046-72a333059d6e|69cf0c4b-13f6-4955-8046-72a333059d6e|2020-12-07|2021-02-18|2020-12-07|2021-03-16|2020-12-07|2021-03-16|||Caserio Puente Duda|2021-02-22|60|YEARS|F|WHITE|HISPANIC OR LATINO|P-5-10|Placebo - 5mg - 10mg|P-5-10|Placebo - 5mg - 10mg|[?]|ESP|2021-02-18|74|
e|DM|19829028-595c-4811-90e3-0ca696a04ba3|19829028-595c-4811-90e3-0ca696a04ba3|2020-07-06|2020-07-28|2020-07-06|2020-10-13|2020-07-06|2020-10-13|||Belmez de la Moraleda|2020-09-11|48|YEARS|F|WHITE|HISPANIC OR LATINO|5-P-10|5mg - Placebo- 10mg|5-P-10|5mg - Placebo- 10mg|[?]|ESP|2020-10-03|90|
e|DM|562a8182-8e9b-4a68-9b95-bc52df58ed46|562a8182-8e9b-4a68-9b95-bc52df58ed46|2020-08-27|2020-11-08|2020-08-27|2020-12-04|2020-08-27|2020-12-04|||Valdefuentes|2020-11-18|72|YEARS|M|BLACK OR AFRICAN AMERICAN|NOT HISPANIC OR LATINO|5-10-P|5mg - 10mg- Placebo|5-10-P|5mg - 10mg- Placebo|[?]|ESP|2020-09-02|7|
e|DM|b29e6912-42f4-471b-ad90-1ec446f89ac0|b29e6912-42f4-471b-ad90-1ec446f89ac0|2021-01-10|2021-04-16|2021-01-10|2021-04-19|2021-01-10|2021-04-19|||Sologuren|2021-04-04|74|YEARS|F|NATIVE HAWAIIAN OR OTHER PACIFIC ISLANDER|NOT HISPANIC OR LATINO|P-5-10|Placebo - 5mg - 10mg|P-5-10|Placebo - 5mg - 10mg|[?]|ESP|2021-02-21|43|
e|DM|2cb58751-c0c4-432c-8f60-22dba6e1ec9a|2cb58751-c0c4-432c-8f60-22dba6e1ec9a|2020-05-31|2020-09-04|2020-05-31|2020-09-07|2020-05-31|2020-09-07|||Goas|2020-06-09|10|YEARS|F|UNKNOWN|HISPANIC OR LATINO|5-P-10|5mg - Placebo- 10mg|5-P-10|5mg - Placebo- 10mg|[?]|ESP|2020-06-15|16|
e|DM|396295ba-9f4c-4689-88c2-f80cb28b567a|396295ba-9f4c-4689-88c2-f80cb28b567a|2020-12-22|2021-02-27|2020-12-22|2021-03-31|2020-12-22|2021-03-31|||Cedraman|2021-03-15|13|YEARS|M|WHITE|NOT REPORTED|P-5-10|Placebo - 5mg - 10mg|P-5-10|Placebo - 5mg - 10mg|[?]|ESP|2021-03-05|74|
e|DM|56072c44-67c3-4c93-8db7-2d1570b2bbbc|56072c44-67c3-4c93-8db7-2d1570b2bbbc|2020-08-17|2020-09-26|2020-08-17|2020-11-24|2020-08-17|2020-11-24|||Casas Berdica|2020-09-09|50|YEARS|M|NATIVE HAWAIIAN OR OTHER PACIFIC ISLANDER|UNKNOWN|5-P-10|5mg - Placebo- 10mg|5-P-10|5mg - Placebo- 10mg|[?]|ESP|2020-09-01|16|
e|DM|55b23180-01f2-498e-a0af-cb9cd7d81750|55b23180-01f2-498e-a0af-cb9cd7d81750|2020-06-22|2020-09-28|2020-06-22|2020-09-29|2020-06-22|2020-09-29|||Ballestero|2020-07-20|40|YEARS|M|BLACK OR AFRICAN AMERICAN|NOT HISPANIC OR LATINO|5-10-P|5mg - 10mg- Placebo|5-10-P|5mg - 10mg- Placebo|[?]|ESP|2020-08-03|43|
e|DM|22e2b674-dc3f-476d-b3d7-2b1f4ddeea1a|22e2b674-dc3f-476d-b3d7-2b1f4ddeea1a|2020-10-31|2020-12-01|2020-10-31|2021-02-07|2020-10-31|2021-02-07|||Debesa|2020-11-21|77|YEARS|F|WHITE|UNKNOWN|5-P-10|5mg - Placebo- 10mg|5-P-10|5mg - Placebo- 10mg|[?]|ESP|2020-11-24|25|
e|DM|940e4aef-5648-46b3-9c3e-7c40f7930030|940e4aef-5648-46b3-9c3e-7c40f7930030|2020-11-06|2020-12-19|2020-11-06|2021-02-13|2020-11-06|2021-02-13|||Godelleta|2020-12-22|56|YEARS|M|ASIAN|NOT HISPANIC OR LATINO|P-5-10|Placebo - 5mg - 10mg|P-5-10|Placebo - 5mg - 10mg|[?]|ESP|2020-12-16|41|
e|DM|e4bece1e-6672-4b55-824f-56aa923e60f9|e4bece1e-6672-4b55-824f-56aa923e60f9|2020-06-13|2020-08-17|2020-06-13|2020-09-20|2020-06-13|2020-09-20|||Cortijos de Mazuza|2020-09-05|57|YEARS|F|BLACK OR AFRICAN AMERICAN|NOT HISPANIC OR LATINO|5-P-10|5mg - Placebo- 10mg|5-P-10|5mg - Placebo- 10mg|[?]|ESP|2020-09-07|87|
e|DM|12e607da-f53c-4078-9742-23a111db6f54|12e607da-f53c-4078-9742-23a111db6f54|2020-09-24|2020-12-30|2020-09-24|2021-01-01|2020-09-24|2021-01-01|||Nieda|2020-10-27|64|YEARS|M|NATIVE HAWAIIAN OR OTHER PACIFIC ISLANDER|NOT HISPANIC OR LATINO|5-10-P|5mg - 10mg- Placebo|5-10-P|5mg - 10mg- Placebo|[?]|ESP|2020-10-19|26|
e|DM|ca763b7f-2e60-4423-a7a8-b5fad4a74b25|ca763b7f-2e60-4423-a7a8-b5fad4a74b25|2021-01-17|2021-04-21|2021-01-17|2021-04-26|2021-01-17|2021-04-26|||Berrocalejo|2021-01-25|76|YEARS|F|WHITE|UNKNOWN|5-P-10|5mg - Placebo- 10mg|5-P-10|5mg - Placebo- 10mg|[?]|ESP|2021-03-01|44|
e|DM|1f6b4ff8-fc33-46c7-8298-fe2e9ea62d60|1f6b4ff8-fc33-46c7-8298-fe2e9ea62d60|2020-07-07|2020-08-02|2020-07-07|2020-10-14|2020-07-07|2020-10-14|||Huerces|2020-07-30|10|YEARS|F|NOT REPORTED|HISPANIC OR LATINO|P-5-10|Placebo - 5mg - 10mg|P-5-10|Placebo - 5mg - 10mg|[?]|ESP|2020-09-16|72|
e|DM|3260122d-3bf4-45ff-a026-2379158721d0|3260122d-3bf4-45ff-a026-2379158721d0|2020-05-26|2020-08-22|2020-05-26|2020-09-02|2020-05-26|2020-09-02|||Casa Adelfar|2020-06-01|29|YEARS|M|AMERICAN INDIAN OR ALASKA NATIVE|NOT HISPANIC OR LATINO|5-10-P|5mg - 10mg- Placebo|5-10-P|5mg - 10mg- Placebo|[?]|ESP|2020-08-26|93|
e|DM|05eb4e29-887e-4cdb-8854-49939a8a13d1|05eb4e29-887e-4cdb-8854-49939a8a13d1|2020-10-27|2021-01-16|2020-10-27|2021-02-03|2020-10-27|2021-02-03|||Larues|2021-01-15|54|YEARS|F|BLACK OR AFRICAN AMERICAN|NOT REPORTED|5-P-10|5mg - Placebo- 10mg|5-P-10|5mg - Placebo- 10mg|[?]|ESP|2020-12-26|61|
e|DM|c8390c70-766d-4252-9356-39591651bcdf|c8390c70-766d-4252-9356-39591651bcdf|2020-08-02|2020-11-08|2020-08-02|2020-11-09|2020-08-02|2020-11-09|||Castro|2020-10-29|79|YEARS|F|UNKNOWN|NOT REPORTED|5-10-P|5mg - 10mg- Placebo|5-10-P|5mg - 10mg- Placebo|[?]|ESP|2020-10-20|80|
e|DM|a40bf877-c070-40b3-89df-d566b942246e|a40bf877-c070-40b3-89df-d566b942246e|2020-06-07|2020-08-19|2020-06-07|2020-09-14|2020-06-07|2020-09-14|||Froyan|2020-07-06|34|YEARS|M|NOT REPORTED|NOT HISPANIC OR LATINO|P-5-10|Placebo - 5mg - 10mg|P-5-10|Placebo - 5mg - 10mg|[?]|ESP|2020-07-06|30|
e|DM|e9633621-3d08-4b47-b394-5bd3fa47c07f|e9633621-3d08-4b47-b394-5bd3fa47c07f|2021-01-07|2021-03-08|2021-01-07|2021-04-16|2021-01-07|2021-04-16|||Casas Las Carrionas|2021-02-16|68|YEARS|F|AMERICAN INDIAN OR ALASKA NATIVE|HISPANIC OR LATINO|5-10-P|5mg - 10mg- Placebo|5-10-P|5mg - 10mg- Placebo|[?]|ESP|2021-02-08|33|
e|DM|ff56cb6e-b6c4-49cc-ad21-9a4d20aad7ee|ff56cb6e-b6c4-49cc-ad21-9a4d20aad7ee|2020-05-30|2020-08-21|2020-05-30|2020-09-06|2020-05-30|2020-09-06|2020-09-06|Y|Ribera Palomar|2020-06-10|48|YEARS|F|NOT REPORTED|HISPANIC OR LATINO|5-P-10|5mg - Placebo- 10mg|5-P-10|5mg - Placebo- 10mg|[?]|ESP|2020-07-23|55|
e|DM|ee525e77-38dd-4b0b-88f4-69759d5dbfd9|ee525e77-38dd-4b0b-88f4-69759d5dbfd9|2020-07-07|2020-08-04|2020-07-07|2020-10-14|2020-07-07|2020-10-14|||Lugar de Arriba|2020-07-16|31|YEARS|F|NOT REPORTED|NOT REPORTED|5-P-10|5mg - Placebo- 10mg|5-P-10|5mg - Placebo- 10mg|[?]|ESP|2020-08-23|48|
e|DM|63f43990-e56e-440c-a445-76e7d114cf26|63f43990-e56e-440c-a445-76e7d114cf26|2020-09-23|2020-12-22|2020-09-23|2020-12-31|2020-09-23|2020-12-31|||Torremocha|2020-11-18|43|YEARS|F|BLACK OR AFRICAN AMERICAN|NOT HISPANIC OR LATINO|P-5-10|Placebo - 5mg - 10mg|P-5-10|Placebo - 5mg - 10mg|[?]|ESP|2020-10-16|24|
e|DM|380c89f4-2650-4a54-92f5-5e1278b9a91e|380c89f4-2650-4a54-92f5-5e1278b9a91e|2020-10-13|2020-12-23|2020-10-13|2021-01-20|2020-10-13|2021-01-20|||San Feliz|2021-01-16|78|YEARS|M|WHITE|NOT REPORTED|5-10-P|5mg - 10mg- Placebo|5-10-P|5mg - 10mg- Placebo|[?]|ESP|2020-12-23|72|
e|DM|84c1f5f4-6415-49d8-b854-22e7529d65b6|84c1f5f4-6415-49d8-b854-22e7529d65b6|2020-11-26|2021-01-30|2020-11-26|2021-03-05|2020-11-26|2021-03-05|||Torre Asensio|2020-12-31|71|YEARS|M|NOT REPORTED|UNKNOWN|5-10-P|5mg - 10mg- Placebo|5-10-P|5mg - 10mg- Placebo|[?]|ESP|2021-01-07|43|
e|DM|77c26a0c-0c84-44d7-8351-a50f3236e59a|77c26a0c-0c84-44d7-8351-a50f3236e59a|2020-05-05|2020-05-17|2020-05-05|2020-08-12|2020-05-05|2020-08-12|||Manin|2020-05-22|61|YEARS|F|ASIAN|HISPANIC OR LATINO|5-10-P|5mg - 10mg- Placebo|5-10-P|5mg - 10mg- Placebo|[?]|ESP|2020-07-17|74|
e|DM|a201c78a-e826-4f42-a997-7c6a019e2c91|a201c78a-e826-4f42-a997-7c6a019e2c91|2020-07-25|2020-10-12|2020-07-25|2020-11-01|2020-07-25|2020-11-01|2020-11-01|Y|Surp|2020-09-09|16|YEARS|M|NOT REPORTED|NOT HISPANIC OR LATINO|5-P-10|5mg - Placebo- 10mg|5-P-10|5mg - Placebo- 10mg|[?]|ESP|2020-10-30|98|
e|DM|c41880bd-1e29-4961-b74d-bb0d979ab00f|c41880bd-1e29-4961-b74d-bb0d979ab00f|2020-09-02|2020-11-19|2020-09-02|2020-12-10|2020-09-02|2020-12-10|||Adalia|2020-09-03|54|YEARS|M|WHITE|NOT REPORTED|5-10-P|5mg - 10mg- Placebo|5-10-P|5mg - 10mg- Placebo|[?]|ESP|2020-09-29|28|
e|DM|7de60015-fa9d-4a39-bd19-51c718a624e6|7de60015-fa9d-4a39-bd19-51c718a624e6|2020-10-15|2020-12-29|2020-10-15|2021-01-22|2020-10-15|2021-01-22|||Matallana de Valmadrigal|2020-12-18|29|YEARS|M|NOT REPORTED|HISPANIC OR LATINO|5-10-P|5mg - 10mg- Placebo|5-10-P|5mg - 10mg- Placebo|[?]|ESP|2021-01-12|90|
e|DM|34d03f58-155a-4908-bba3-aa979be84610|34d03f58-155a-4908-bba3-aa979be84610|2020-06-20|2020-09-23|2020-06-20|2020-09-27|2020-06-20|2020-09-27|||Caserio Casa Rubia|2020-07-10|59|YEARS|M|WHITE|HISPANIC OR LATINO|5-10-P|5mg - 10mg- Placebo|5-10-P|5mg - 10mg- Placebo|[?]|ESP|2020-06-28|9|
e|DM|3818424f-cbc9-4e79-94b8-7edbc706bdbc|3818424f-cbc9-4e79-94b8-7edbc706bdbc|2020-08-14|2020-10-08|2020-08-14|2020-11-21|2020-08-14|2020-11-21|||Mallon|2020-10-07|16|YEARS|F|NOT REPORTED|NOT REPORTED|5-10-P|5mg - 10mg- Placebo|5-10-P|5mg - 10mg- Placebo|[?]|ESP|2020-09-29|47|
e|DM|4191788e-b2dc-4885-87d8-da9feb6deea5|4191788e-b2dc-4885-87d8-da9feb6deea5|2020-09-02|2020-11-20|2020-09-02|2020-12-10|2020-09-02|2020-12-10|2020-12-10|Y|Cembrero|2020-11-11|11|YEARS|M|NOT REPORTED|UNKNOWN|5-P-10|5mg - Placebo- 10mg|5-P-10|5mg - Placebo- 10mg|[?]|ESP|2020-10-16|45|
e|DM|8572a9c4-eb87-4745-81b9-8316bc8de69e|8572a9c4-eb87-4745-81b9-8316bc8de69e|2020-12-15|2021-03-06|2020-12-15|2021-03-24|2020-12-15|2021-03-24|||Castilblanco|2020-12-21|55|YEARS|M|UNKNOWN|NOT REPORTED|5-10-P|5mg - 10mg- Placebo|5-10-P|5mg - 10mg- Placebo|[?]|ESP|2021-03-09|85|
e|DM|74c9d1b3-6466-43c1-95b0-b720a0dd6e37|74c9d1b3-6466-43c1-95b0-b720a0dd6e37|2020-11-17|2020-11-18|2020-11-17|2021-02-24|2020-11-17|2021-02-24|||Obre|2021-01-12|55|YEARS|F|AMERICAN INDIAN OR ALASKA NATIVE|NOT HISPANIC OR LATINO|P-5-10|Placebo - 5mg - 10mg|P-5-10|Placebo - 5mg - 10mg|[?]|ESP|2020-12-30|44|
e|DM|3eceae61-a4a0-49fd-964b-9f142e0da067|3eceae61-a4a0-49fd-964b-9f142e0da067|2020-08-19|2020-11-16|2020-08-19|2020-11-26|2020-08-19|2020-11-26|||Caserio Casa Castillo|2020-10-24|20|YEARS|F|AMERICAN INDIAN OR ALASKA NATIVE|NOT REPORTED|P-5-10|Placebo - 5mg - 10mg|P-5-10|Placebo - 5mg - 10mg|[?]|ESP|2020-09-06|19|
e|DM|fe7ad71c-601d-4909-b56a-401c9a10f00c|fe7ad71c-601d-4909-b56a-401c9a10f00c|2020-05-12|2020-06-24|2020-05-12|2020-08-19|2020-05-12|2020-08-19|||Zugarramurdi|2020-06-26|43|YEARS|M|ASIAN|NOT REPORTED|P-5-10|Placebo - 5mg - 10mg|P-5-10|Placebo - 5mg - 10mg|[?]|ESP|2020-05-22|11|
e|DM|cc52d895-5819-46c0-b8e6-b948f1cd2408|cc52d895-5819-46c0-b8e6-b948f1cd2408|2020-06-27|2020-07-03|2020-06-27|2020-10-04|2020-06-27|2020-10-04|||El Espinar|2020-07-24|68|YEARS|F|NATIVE HAWAIIAN OR OTHER PACIFIC ISLANDER|UNKNOWN|5-10-P|5mg - 10mg- Placebo|5-10-P|5mg - 10mg- Placebo|[?]|ESP|2020-09-13|79|
e|DM|b56a5fe6-1191-4e36-ad30-2f9fc0a2fb72|b56a5fe6-1191-4e36-ad30-2f9fc0a2fb72|2021-01-20|2021-02-15|2021-01-20|2021-04-29|2021-01-20|2021-04-29|||Soria|2021-01-28|33|YEARS|F|NOT REPORTED|NOT HISPANIC OR LATINO|P-5-10|Placebo - 5mg - 10mg|P-5-10|Placebo - 5mg - 10mg|[?]|ESP|2021-02-09|21|
e|DM|1409edea-a372-4938-889b-df6ee93b8543|1409edea-a372-4938-889b-df6ee93b8543|2020-08-18|2020-10-19|2020-08-18|2020-11-25|2020-08-18|2020-11-25|||Lleret|2020-10-02|27|YEARS|F|UNKNOWN|HISPANIC OR LATINO|5-P-10|5mg - Placebo- 10mg|5-P-10|5mg - Placebo- 10mg|[?]|ESP|2020-10-14|58|
e|DM|3dc16ad2-d49d-4fad-9823-d0197fb57a42|3dc16ad2-d49d-4fad-9823-d0197fb57a42|2020-08-26|2020-10-09|2020-08-26|2020-12-03|2020-08-26|2020-12-03|||Canamares|2020-09-03|26|YEARS|F|NOT REPORTED|HISPANIC OR LATINO|5-10-P|5mg - 10mg- Placebo|5-10-P|5mg - 10mg- Placebo|[?]|ESP|2020-10-19|55|
e|DM|7c244128-0508-422f-88ba-ecce68cec054|7c244128-0508-422f-88ba-ecce68cec054|2020-07-27|2020-10-30|2020-07-27|2020-11-03|2020-07-27|2020-11-03|||Santa Cristina|2020-09-12|60|YEARS|F|UNKNOWN|NOT REPORTED|5-P-10|5mg - Placebo- 10mg|5-P-10|5mg - Placebo- 10mg|[?]|ESP|2020-09-17|53|
e|DM|247814c7-9fb3-43f2-9e0a-db70b27b3d95|247814c7-9fb3-43f2-9e0a-db70b27b3d95|2020-12-07|2021-02-02|2020-12-07|2021-03-16|2020-12-07|2021-03-16|||Cortijo Jaulas|2020-12-24|63|YEARS|M|UNKNOWN|NOT REPORTED|5-10-P|5mg - 10mg- Placebo|5-10-P|5mg - 10mg- Placebo|[?]|ESP|2021-03-05|89|
e|DM|e870fe2f-b08c-41d9-a672-07da09fe2b99|e870fe2f-b08c-41d9-a672-07da09fe2b99|2020-08-03|2020-09-22|2020-08-03|2020-11-10|2020-08-03|2020-11-10|||Llano del Castillo|2020-11-08|37|YEARS|F|BLACK OR AFRICAN AMERICAN|NOT REPORTED|5-P-10|5mg - Placebo- 10mg|5-P-10|5mg - Placebo- 10mg|[?]|ESP|2020-11-09|99|
e|DM|32979638-fb88-4cbb-a110-a4d2016e9bc5|32979638-fb88-4cbb-a110-a4d2016e9bc5|2020-07-06|2020-09-25|2020-07-06|2020-10-13|2020-07-06|2020-10-13|||San Juan de Torres|2020-09-28|50|YEARS|F|AMERICAN INDIAN OR ALASKA NATIVE|UNKNOWN|5-10-P|5mg - 10mg- Placebo|5-10-P|5mg - 10mg- Placebo|[?]|ESP|2020-08-22|48|
e|DM|39b8db88-810b-4402-9ca3-c2bab1939c1c|39b8db88-810b-4402-9ca3-c2bab1939c1c|2020-11-06|2020-12-19|2020-11-06|2021-02-13|2020-11-06|2021-02-13|||Zapatal|2021-01-19|10|YEARS|M|NATIVE HAWAIIAN OR OTHER PACIFIC ISLANDER|NOT HISPANIC OR LATINO|5-P-10|5mg - Placebo- 10mg|5-P-10|5mg - Placebo- 10mg|[?]|ESP|2020-12-04|29|
e|DM|b6cce9a5-9b5d-4dd2-80ad-0c6a5b1ed640|b6cce9a5-9b5d-4dd2-80ad-0c6a5b1ed640|2020-07-18|2020-10-14|2020-07-18|2020-10-25|2020-07-18|2020-10-25|||Arbuniel|2020-07-21|26|YEARS|M|AMERICAN INDIAN OR ALASKA NATIVE|HISPANIC OR LATINO|5-10-P|5mg - 10mg- Placebo|5-10-P|5mg - 10mg- Placebo|[?]|ESP|2020-09-14|59|
e|DM|bca1f50d-04e6-46f5-afb3-e48aaea1069d|bca1f50d-04e6-46f5-afb3-e48aaea1069d|2020-10-25|2021-01-11|2020-10-25|2021-02-01|2020-10-25|2021-02-01|||Barrio Navalmoro|2021-01-31|78|YEARS|F|NATIVE HAWAIIAN OR OTHER PACIFIC ISLANDER|NOT REPORTED|P-5-10|Placebo - 5mg - 10mg|P-5-10|Placebo - 5mg - 10mg|[?]|ESP|2020-11-14|21|
e|DM|6bddadef-13fb-4fab-b281-aa33aa97aa8f|6bddadef-13fb-4fab-b281-aa33aa97aa8f|2020-05-15|2020-07-02|2020-05-15|2020-08-22|2020-05-15|2020-08-22|||El Abalario|2020-08-21|21|YEARS|F|BLACK OR AFRICAN AMERICAN|UNKNOWN|5-P-10|5mg - Placebo- 10mg|5-P-10|5mg - Placebo- 10mg|[?]|ESP|2020-06-05|22|
e|DM|6edb7414-d8f4-44da-8483-504b93a7e705|6edb7414-d8f4-44da-8483-504b93a7e705|2020-05-29|2020-09-02|2020-05-29|2020-09-05|2020-05-29|2020-09-05|||Llanos|2020-06-01|45|YEARS|F|NOT REPORTED|HISPANIC OR LATINO|5-10-P|5mg - 10mg- Placebo|5-10-P|5mg - 10mg- Placebo|[?]|ESP|2020-07-26|59|
e|DM|3fd8445d-f3b1-46ac-b5ae-a0e5a7f32210|3fd8445d-f3b1-46ac-b5ae-a0e5a7f32210|2020-05-07|2020-05-09|2020-05-07|2020-08-14|2020-05-07|2020-08-14|||Fuenteliante|2020-07-06|80|YEARS|M|UNKNOWN|NOT HISPANIC OR LATINO|5-10-P|5mg - 10mg- Placebo|5-10-P|5mg - 10mg- Placebo|[?]|ESP|2020-07-17|72|
e|DM|b005dec4-0aed-484d-b20a-bb18cf8ddbe6|b005dec4-0aed-484d-b20a-bb18cf8ddbe6|2020-05-09|2020-06-22|2020-05-09|2020-08-16|2020-05-09|2020-08-16|||San Andres del Rey|2020-06-17|17|YEARS|F|AMERICAN INDIAN OR ALASKA NATIVE|HISPANIC OR LATINO|5-P-10|5mg - Placebo- 10mg|5-P-10|5mg - Placebo- 10mg|[?]|ESP|2020-08-08|92|
e|DM|47d55e87-e559-424d-a6ad-d533a0d77f39|47d55e87-e559-424d-a6ad-d533a0d77f39|2021-01-03|2021-03-07|2021-01-03|2021-04-12|2021-01-03|2021-04-12|||Santa Cruz|2021-03-12|53|YEARS|M|NATIVE HAWAIIAN OR OTHER PACIFIC ISLANDER|HISPANIC OR LATINO|5-P-10|5mg - Placebo- 10mg|5-P-10|5mg - Placebo- 10mg|[?]|ESP|2021-04-06|94|
e|DM|f89c08df-2e24-4c97-a451-1980cecebf14|f89c08df-2e24-4c97-a451-1980cecebf14|2020-12-09|2021-03-14|2020-12-09|2021-03-18|2020-12-09|2021-03-18|2021-03-18|Y|Piedrabuena|2021-03-08|67|YEARS|F|AMERICAN INDIAN OR ALASKA NATIVE|UNKNOWN|P-5-10|Placebo - 5mg - 10mg|P-5-10|Placebo - 5mg - 10mg|[?]|ESP|2020-12-12|4|
e|DM|dbb225ed-e322-4946-a60a-0fafd7e22953|dbb225ed-e322-4946-a60a-0fafd7e22953|2021-01-15|2021-02-04|2021-01-15|2021-04-24|2021-01-15|2021-04-24|||San Juan|2021-01-16|24|YEARS|F|NATIVE HAWAIIAN OR OTHER PACIFIC ISLANDER|NOT HISPANIC OR LATINO|5-P-10|5mg - Placebo- 10mg|5-P-10|5mg - Placebo- 10mg|[?]|ESP|2021-02-05|22|
e|DM|95e61698-43f7-4cc5-aafa-06dac7870743|95e61698-43f7-4cc5-aafa-06dac7870743|2020-12-16|2021-01-10|2020-12-16|2021-03-25|2020-12-16|2021-03-25|||Armentia|2021-01-21|47|YEARS|M|WHITE|NOT HISPANIC OR LATINO|5-P-10|5mg - Placebo- 10mg|5-P-10|5mg - Placebo- 10mg|[?]|ESP|2020-12-20|5|
e|DM|151308c7-03aa-4a0b-b13f-9838edb218ef|151308c7-03aa-4a0b-b13f-9838edb218ef|2020-09-04|2020-10-15|2020-09-04|2020-12-12|2020-09-04|2020-12-12|||Vehinat de San Lorenzo|2020-11-24|23|YEARS|F|NATIVE HAWAIIAN OR OTHER PACIFIC ISLANDER|UNKNOWN|5-P-10|5mg - Placebo- 10mg|5-P-10|5mg - Placebo- 10mg|[?]|ESP|2020-10-24|51|
e|DM|f38e0fff-e3f9-4687-b35b-f11f58b2b5f5|f38e0fff-e3f9-4687-b35b-f11f58b2b5f5|2020-06-06|2020-07-01|2020-06-06|2020-09-13|2020-06-06|2020-09-13|||Albares|2020-07-03|14|YEARS|M|NOT REPORTED|HISPANIC OR LATINO|5-P-10|5mg - Placebo- 10mg|5-P-10|5mg - Placebo- 10mg|[?]|ESP|2020-09-02|89|
e|DM|23605586-1b30-4f05-bb15-417dd3a79994|23605586-1b30-4f05-bb15-417dd3a79994|2020-10-22|2020-11-07|2020-10-22|2021-01-29|2020-10-22|2021-01-29|||Pozo Lorente|2020-11-23|35|YEARS|F|ASIAN|NOT HISPANIC OR LATINO|P-5-10|Placebo - 5mg - 10mg|P-5-10|Placebo - 5mg - 10mg|[?]|ESP|2020-11-28|38|
e|DM|57d15ac0-06a6-40e0-9201-4d947651c9b0|57d15ac0-06a6-40e0-9201-4d947651c9b0|2020-08-19|2020-10-13|2020-08-19|2020-11-26|2020-08-19|2020-11-26|||Grandes|2020-11-21|72|YEARS|M|AMERICAN INDIAN OR ALASKA NATIVE|NOT REPORTED|5-10-P|5mg - 10mg- Placebo|5-10-P|5mg - 10mg- Placebo|[?]|ESP|2020-10-02|45|
e|DM|7dbd7e4e-12c2-48c2-9ac2-4d9176922722|7dbd7e4e-12c2-48c2-9ac2-4d9176922722|2020-08-03|2020-10-19|2020-08-03|2020-11-10|2020-08-03|2020-11-10|||Solera|2020-09-17|60|YEARS|M|NOT REPORTED|NOT HISPANIC OR LATINO|5-10-P|5mg - 10mg- Placebo|5-10-P|5mg - 10mg- Placebo|[?]|ESP|2020-10-01|60|
e|DM|5dbb73e4-6e14-45c4-bcaa-2c571199c74f|5dbb73e4-6e14-45c4-bcaa-2c571199c74f|2020-08-22|2020-10-31|2020-08-22|2020-11-29|2020-08-22|2020-11-29|||San Jorge|2020-09-01|74|YEARS|M|AMERICAN INDIAN OR ALASKA NATIVE|NOT HISPANIC OR LATINO|P-5-10|Placebo - 5mg - 10mg|P-5-10|Placebo - 5mg - 10mg|[?]|ESP|2020-10-14|54|
e|DM|ec2c7d40-5bcb-408d-bf6c-77667a92e2d1|ec2c7d40-5bcb-408d-bf6c-77667a92e2d1|2020-12-15|2021-03-15|2020-12-15|2021-03-24|2020-12-15|2021-03-24|||Arroturas|2021-02-25|35|YEARS|F|WHITE|HISPANIC OR LATINO|5-10-P|5mg - 10mg- Placebo|5-10-P|5mg - 10mg- Placebo|[?]|ESP|2021-02-04|52|
e|DM|24c65d59-8d34-4d91-bf0b-6fc6aaaab8ae|24c65d59-8d34-4d91-bf0b-6fc6aaaab8ae|2020-06-23|2020-07-11|2020-06-23|2020-09-30|2020-06-23|2020-09-30|||Santo Tome|2020-08-19|44|YEARS|M|BLACK OR AFRICAN AMERICAN|NOT REPORTED|5-10-P|5mg - 10mg- Placebo|5-10-P|5mg - 10mg- Placebo|[?]|ESP|2020-09-02|72|
e|DM|81f62132-123e-4888-abbe-8e289599e965|81f62132-123e-4888-abbe-8e289599e965|2020-11-25|2021-01-31|2020-11-25|2021-03-04|2020-11-25|2021-03-04|||Becharro|2020-12-12|60|YEARS|F|WHITE|UNKNOWN|5-10-P|5mg - 10mg- Placebo|5-10-P|5mg - 10mg- Placebo|[?]|ESP|2020-11-29|5|
e|DM|c16c0dd1-8d1a-4be6-9017-457db68bb8e4|c16c0dd1-8d1a-4be6-9017-457db68bb8e4|2020-05-07|2020-07-05|2020-05-07|2020-08-14|2020-05-07|2020-08-14|||Caserios Los Villaesteres|2020-07-24|55|YEARS|M|AMERICAN INDIAN OR ALASKA NATIVE|NOT REPORTED|5-10-P|5mg - 10mg- Placebo|5-10-P|5mg - 10mg- Placebo|[?]|ESP|2020-05-08|2|
e|DM|49282406-97ec-4108-adf9-e01c18ce59c6|49282406-97ec-4108-adf9-e01c18ce59c6|2020-05-08|2020-07-02|2020-05-08|2020-08-15|2020-05-08|2020-08-15|||Binisalem|2020-05-20|39|YEARS|F|NOT REPORTED|NOT REPORTED|5-10-P|5mg - 10mg- Placebo|5-10-P|5mg - 10mg- Placebo|[?]|ESP|2020-08-10|95|
e|DM|310936c8-7d24-4eea-9892-1cd8bb675421|310936c8-7d24-4eea-9892-1cd8bb675421|2020-06-27|2020-08-11|2020-06-27|2020-10-04|2020-06-27|2020-10-04|||Caserio La Torre|2020-09-11|38|YEARS|F|AMERICAN INDIAN OR ALASKA NATIVE|UNKNOWN|P-5-10|Placebo - 5mg - 10mg|P-5-10|Placebo - 5mg - 10mg|[?]|ESP|2020-07-01|5|
e|DM|034e303b-5675-4188-bcea-fc2e53b155d6|034e303b-5675-4188-bcea-fc2e53b155d6|2020-05-23|2020-08-21|2020-05-23|2020-08-30|2020-05-23|2020-08-30|||Rucandio|2020-06-15|77|YEARS|M|NATIVE HAWAIIAN OR OTHER PACIFIC ISLANDER|NOT REPORTED|P-5-10|Placebo - 5mg - 10mg|P-5-10|Placebo - 5mg - 10mg|[?]|ESP|2020-08-29|99|
e|DM|b09e4a17-0a71-4cd9-bb8d-97e2cca0f649|b09e4a17-0a71-4cd9-bb8d-97e2cca0f649|2020-06-28|2020-07-04|2020-06-28|2020-10-05|2020-06-28|2020-10-05|2020-10-05|Y|Cornella de Llobregat|2020-07-21|78|YEARS|F|BLACK OR AFRICAN AMERICAN|NOT HISPANIC OR LATINO|P-5-10|Placebo - 5mg - 10mg|P-5-10|Placebo - 5mg - 10mg|[?]|ESP|2020-08-07|41|
e|DM|c912affb-cbc2-4919-81b4-ecaa03908261|c912affb-cbc2-4919-81b4-ecaa03908261|2020-07-03|2020-09-19|2020-07-03|2020-10-10|2020-07-03|2020-10-10|||San Juan|2020-10-01|42|YEARS|F|ASIAN|NOT REPORTED|P-5-10|Placebo - 5mg - 10mg|P-5-10|Placebo - 5mg - 10mg|[?]|ESP|2020-09-02|62|
e|DM|5af817f0-5dfb-4046-ac7c-4bae16a90036|5af817f0-5dfb-4046-ac7c-4bae16a90036|2020-06-27|2020-08-21|2020-06-27|2020-10-04|2020-06-27|2020-10-04|||Los Pallareses|2020-09-28|31|YEARS|M|NATIVE HAWAIIAN OR OTHER PACIFIC ISLANDER|NOT REPORTED|5-P-10|5mg - Placebo- 10mg|5-P-10|5mg - Placebo- 10mg|[?]|ESP|2020-10-03|99|
e|DM|dcefd656-a59a-4b71-9260-efcbcecd2132|dcefd656-a59a-4b71-9260-efcbcecd2132|2020-05-26|2020-06-14|2020-05-26|2020-09-02|2020-05-26|2020-09-02|||Toimil|2020-06-10|38|YEARS|F|UNKNOWN|HISPANIC OR LATINO|5-10-P|5mg - 10mg- Placebo|5-10-P|5mg - 10mg- Placebo|[?]|ESP|2020-06-02|8|
e|DM|641c8067-941a-4f1a-a7b1-4eea0242f1d7|641c8067-941a-4f1a-a7b1-4eea0242f1d7|2020-12-13|2021-01-29|2020-12-13|2021-03-22|2020-12-13|2021-03-22|||Cebrones del Rio|2021-01-26|80|YEARS|F|BLACK OR AFRICAN AMERICAN|NOT REPORTED|5-P-10|5mg - Placebo- 10mg|5-P-10|5mg - Placebo- 10mg|[?]|ESP|2021-01-23|42|
e|DM|ab6fb8ca-d455-4141-82f7-cdb7eaf7dfda|ab6fb8ca-d455-4141-82f7-cdb7eaf7dfda|2020-09-15|2020-10-18|2020-09-15|2020-12-23|2020-09-15|2020-12-23|||Parada de Laviote|2020-12-16|26|YEARS|M|UNKNOWN|NOT HISPANIC OR LATINO|5-P-10|5mg - Placebo- 10mg|5-P-10|5mg - Placebo- 10mg|[?]|ESP|2020-11-23|70|
e|DM|b7a9c5a6-98ed-4ca1-98ea-4cfc03749c0f|b7a9c5a6-98ed-4ca1-98ea-4cfc03749c0f|2020-10-22|2020-12-02|2020-10-22|2021-01-29|2020-10-22|2021-01-29|||Aoiz|2020-11-19|35|YEARS|F|NATIVE HAWAIIAN OR OTHER PACIFIC ISLANDER|UNKNOWN|5-P-10|5mg - Placebo- 10mg|5-P-10|5mg - Placebo- 10mg|[?]|ESP|2020-12-21|61|
e|DM|46304edd-0b05-4819-8fcb-35cf9c02764d|46304edd-0b05-4819-8fcb-35cf9c02764d|2020-11-24|2021-01-19|2020-11-24|2021-03-03|2020-11-24|2021-03-03|2021-03-03|Y|Barrio Uxola|2020-12-14|55|YEARS|M|ASIAN|NOT REPORTED|P-5-10|Placebo - 5mg - 10mg|P-5-10|Placebo - 5mg - 10mg|[?]|ESP|2021-01-21|59|
e|DM|3fd6dab2-b35f-4cc5-88dd-b507583d9539|3fd6dab2-b35f-4cc5-88dd-b507583d9539|2020-05-17|2020-07-03|2020-05-17|2020-08-24|2020-05-17|2020-08-24|||Granja Arenales|2020-05-22|44|YEARS|F|NOT REPORTED|HISPANIC OR LATINO|P-5-10|Placebo - 5mg - 10mg|P-5-10|Placebo - 5mg - 10mg|[?]|ESP|2020-06-05|20|
e|DM|daa3b89e-637a-43de-86c1-d0db93f00430|daa3b89e-637a-43de-86c1-d0db93f00430|2020-10-02|2020-12-30|2020-10-02|2021-01-09|2020-10-02|2021-01-09|||Almantiga|2020-12-27|24|YEARS|F|ASIAN|NOT HISPANIC OR LATINO|5-P-10|5mg - Placebo- 10mg|5-P-10|5mg - Placebo- 10mg|[?]|ESP|2020-11-18|48|
e|DM|14e9cde0-92f5-48d4-82ec-cc72f07ba40b|14e9cde0-92f5-48d4-82ec-cc72f07ba40b|2020-06-25|2020-07-12|2020-06-25|2020-10-02|2020-06-25|2020-10-02|||Castelo|2020-06-26|59|YEARS|F|ASIAN|NOT REPORTED|5-10-P|5mg - 10mg- Placebo|5-10-P|5mg - 10mg- Placebo|[?]|ESP|2020-07-01|7|
e|DM|c22014f2-2d7b-4897-8ad5-e46785e51837|c22014f2-2d7b-4897-8ad5-e46785e51837|2020-08-04|2020-09-14|2020-08-04|2020-11-11|2020-08-04|2020-11-11|||Limes|2020-09-26|18|YEARS|M|AMERICAN INDIAN OR ALASKA NATIVE|NOT HISPANIC OR LATINO|5-10-P|5mg - 10mg- Placebo|5-10-P|5mg - 10mg- Placebo|[?]|ESP|2020-09-13|41|
e|DM|987102b2-fe2f-4d72-b8dc-14a71bf034b5|987102b2-fe2f-4d72-b8dc-14a71bf034b5|2020-10-02|2020-12-14|2020-10-02|2021-01-09|2020-10-02|2021-01-09|||Fontespala|2020-10-27|61|YEARS|M|ASIAN|NOT REPORTED|5-10-P|5mg - 10mg- Placebo|5-10-P|5mg - 10mg- Placebo|[?]|ESP|2020-10-06|5|
e|DM|24ce0c77-1921-4b87-91da-3627e2afd399|24ce0c77-1921-4b87-91da-3627e2afd399|2021-01-20|2021-03-18|2021-01-20|2021-04-29|2021-01-20|2021-04-29|||Candanal|2021-03-26|29|YEARS|F|NATIVE HAWAIIAN OR OTHER PACIFIC ISLANDER|NOT HISPANIC OR LATINO|5-10-P|5mg - 10mg- Placebo|5-10-P|5mg - 10mg- Placebo|[?]|ESP|2021-03-02|42|
e|DM|097351a3-9bb2-4af7-8e96-6d4d9d8ccf87|097351a3-9bb2-4af7-8e96-6d4d9d8ccf87|2020-08-11|2020-10-06|2020-08-11|2020-11-18|2020-08-11|2020-11-18|||Castano de Robledo|2020-09-15|18|YEARS|M|ASIAN|HISPANIC OR LATINO|P-5-10|Placebo - 5mg - 10mg|P-5-10|Placebo - 5mg - 10mg|[?]|ESP|2020-08-14|4|
e|DM|f4b83a72-7cde-4e02-8883-05e789c617a8|f4b83a72-7cde-4e02-8883-05e789c617a8|2020-12-16|2021-01-18|2020-12-16|2021-03-25|2020-12-16|2021-03-25|||Banga|2021-02-10|60|YEARS|F|NOT REPORTED|HISPANIC OR LATINO|5-10-P|5mg - 10mg- Placebo|5-10-P|5mg - 10mg- Placebo|[?]|ESP|2021-01-31|47|
e|DM|c4087538-422a-4bcf-af25-ed4aab36ed4b|c4087538-422a-4bcf-af25-ed4aab36ed4b|2020-12-31|2021-04-02|2020-12-31|2021-04-09|2020-12-31|2021-04-09|||La Sierra|2021-01-08|40|YEARS|F|ASIAN|NOT REPORTED|5-10-P|5mg - 10mg- Placebo|5-10-P|5mg - 10mg- Placebo|[?]|ESP|2021-02-17|49|
e|DM|947aefaf-20c7-47fc-ac56-140f9b6f38f3|947aefaf-20c7-47fc-ac56-140f9b6f38f3|2020-10-28|2020-11-28|2020-10-28|2021-02-04|2020-10-28|2021-02-04|||Son Curt|2020-11-10|46|YEARS|M|WHITE|NOT HISPANIC OR LATINO|5-P-10|5mg - Placebo- 10mg|5-P-10|5mg - Placebo- 10mg|[?]|ESP|2021-01-13|78|
e|DM|3a0c00eb-5614-4053-844d-6bdb71efb1cd|3a0c00eb-5614-4053-844d-6bdb71efb1cd|2020-08-02|2020-09-20|2020-08-02|2020-11-09|2020-08-02|2020-11-09|||La Veredilla|2020-09-06|74|YEARS|F|WHITE|NOT HISPANIC OR LATINO|5-10-P|5mg - 10mg- Placebo|5-10-P|5mg - 10mg- Placebo|[?]|ESP|2020-08-28|27|
e|DM|dc3ce247-24dd-4255-85a8-ec7a58d30c86|dc3ce247-24dd-4255-85a8-ec7a58d30c86|2020-10-02|2021-01-08|2020-10-02|2021-01-09|2020-10-02|2021-01-09|||Santa Maria|2020-10-13|27|YEARS|M|ASIAN|NOT HISPANIC OR LATINO|P-5-10|Placebo - 5mg - 10mg|P-5-10|Placebo - 5mg - 10mg|[?]|ESP|2021-01-02|93|
e|DM|61c19f94-bdfc-456d-ba7a-c9097ca1c645|61c19f94-bdfc-456d-ba7a-c9097ca1c645|2020-06-25|2020-06-26|2020-06-25|2020-10-02|2020-06-25|2020-10-02|||Cerbon|2020-09-18|20|YEARS|F|NOT REPORTED|NOT REPORTED|5-P-10|5mg - Placebo- 10mg|5-P-10|5mg - Placebo- 10mg|[?]|ESP|2020-08-29|66|
e|DM|1e577f2d-2c45-477d-b74f-af24b81d6d20|1e577f2d-2c45-477d-b74f-af24b81d6d20|2020-09-14|2020-11-10|2020-09-14|2020-12-22|2020-09-14|2020-12-22|||Cosera|2020-09-19|48|YEARS|F|WHITE|HISPANIC OR LATINO|P-5-10|Placebo - 5mg - 10mg|P-5-10|Placebo - 5mg - 10mg|[?]|ESP|2020-11-19|67|
e|DM|f845101e-c057-4f84-94b3-6043afb42ac7|f845101e-c057-4f84-94b3-6043afb42ac7|2020-10-18|2020-11-08|2020-10-18|2021-01-25|2020-10-18|2021-01-25|||Almazul|2020-11-09|76|YEARS|F|UNKNOWN|UNKNOWN|5-P-10|5mg - Placebo- 10mg|5-P-10|5mg - Placebo- 10mg|[?]|ESP|2020-12-23|67|
e|DM|4ddb2076-6837-4028-81bc-3e8057475977|4ddb2076-6837-4028-81bc-3e8057475977|2020-12-18|2021-02-26|2020-12-18|2021-03-27|2020-12-18|2021-03-27|||Salduero|2021-02-07|30|YEARS|M|WHITE|NOT HISPANIC OR LATINO|P-5-10|Placebo - 5mg - 10mg|P-5-10|Placebo - 5mg - 10mg|[?]|ESP|2021-01-01|15|
e|DM|c165c69c-2ab2-495c-a190-e32d1204bc4e|c165c69c-2ab2-495c-a190-e32d1204bc4e|2020-12-23|2021-02-13|2020-12-23|2021-04-01|2020-12-23|2021-04-01|||Vicalvaro|2021-03-06|26|YEARS|F|AMERICAN INDIAN OR ALASKA NATIVE|NOT HISPANIC OR LATINO|5-P-10|5mg - Placebo- 10mg|5-P-10|5mg - Placebo- 10mg|[?]|ESP|2021-02-09|49|
e|DM|fa6801a8-544d-44d7-a3e4-e8e18b2f2f69|fa6801a8-544d-44d7-a3e4-e8e18b2f2f69|2020-12-20|2021-03-08|2020-12-20|2021-03-29|2020-12-20|2021-03-29|||Ambroz|2021-03-27|60|YEARS|M|NATIVE HAWAIIAN OR OTHER PACIFIC ISLANDER|NOT HISPANIC OR LATINO|P-5-10|Placebo - 5mg - 10mg|P-5-10|Placebo - 5mg - 10mg|[?]|ESP|2021-02-23|66|
e|DM|024a9f6d-4ff1-4673-8617-3790f831fce7|024a9f6d-4ff1-4673-8617-3790f831fce7|2020-06-04|2020-06-30|2020-06-04|2020-09-11|2020-06-04|2020-09-11|||Barriada Los Carriones|2020-08-31|23|YEARS|F|WHITE|NOT HISPANIC OR LATINO|5-P-10|5mg - Placebo- 10mg|5-P-10|5mg - Placebo- 10mg|[?]|ESP|2020-07-20|47|
e|DM|40936fc6-251d-4a17-ae9d-3bd1150f8d20|40936fc6-251d-4a17-ae9d-3bd1150f8d20|2020-11-09|2021-01-06|2020-11-09|2021-02-16|2020-11-09|2021-02-16|||Caserio Ofra|2021-01-15|53|YEARS|M|NATIVE HAWAIIAN OR OTHER PACIFIC ISLANDER|HISPANIC OR LATINO|P-5-10|Placebo - 5mg - 10mg|P-5-10|Placebo - 5mg - 10mg|[?]|ESP|2021-02-03|87|
e|DM|17b9fa7a-f15d-423a-9671-99cd0cbbd362|17b9fa7a-f15d-423a-9671-99cd0cbbd362|2020-11-02|2020-12-10|2020-11-02|2021-02-09|2020-11-02|2021-02-09|||Paradela de Muces|2020-11-27|40|YEARS|F|NOT REPORTED|UNKNOWN|5-10-P|5mg - 10mg- Placebo|5-10-P|5mg - 10mg- Placebo|[?]|ESP|2020-11-19|18|
e|DM|95c4465b-162a-433d-83c9-6d67dd729c9e|95c4465b-162a-433d-83c9-6d67dd729c9e|2020-10-13|2021-01-05|2020-10-13|2021-01-20|2020-10-13|2021-01-20|||Castelo|2021-01-17|27|YEARS|F|NOT REPORTED|UNKNOWN|5-P-10|5mg - Placebo- 10mg|5-P-10|5mg - Placebo- 10mg|[?]|ESP|2021-01-04|84|
e|DM|9a205b50-21a9-4fbc-9ca9-a9378aadd5de|9a205b50-21a9-4fbc-9ca9-a9378aadd5de|2020-06-18|2020-08-22|2020-06-18|2020-09-25|2020-06-18|2020-09-25|||Caserio Las Suertes|2020-08-20|24|YEARS|M|UNKNOWN|UNKNOWN|5-10-P|5mg - 10mg- Placebo|5-10-P|5mg - 10mg- Placebo|[?]|ESP|2020-07-13|26|
e|DM|beb6b1ab-1264-456a-bf2b-81e28493301d|beb6b1ab-1264-456a-bf2b-81e28493301d|2020-06-01|2020-07-05|2020-06-01|2020-09-08|2020-06-01|2020-09-08|||Caserio Comisario|2020-07-04|46|YEARS|M|UNKNOWN|HISPANIC OR LATINO|5-P-10|5mg - Placebo- 10mg|5-P-10|5mg - Placebo- 10mg|[?]|ESP|2020-06-09|9|
e|DM|4292c06d-044e-4dff-aea0-830178a6e220|4292c06d-044e-4dff-aea0-830178a6e220|2020-11-23|2020-12-05|2020-11-23|2021-03-02|2020-11-23|2021-03-02|||Olveda|2020-12-20|64|YEARS|M|WHITE|HISPANIC OR LATINO|P-5-10|Placebo - 5mg - 10mg|P-5-10|Placebo - 5mg - 10mg|[?]|ESP|2021-02-09|79|
e|DM|050c12d2-cf9f-402b-9332-d6a9771ed115|050c12d2-cf9f-402b-9332-d6a9771ed115|2020-08-09|2020-11-03|2020-08-09|2020-11-16|2020-08-09|2020-11-16|||Vilovi|2020-09-12|63|YEARS|M|WHITE|HISPANIC OR LATINO|P-5-10|Placebo - 5mg - 10mg|P-5-10|Placebo - 5mg - 10mg|[?]|ESP|2020-10-05|58|
e|DM|2f1073e4-607f-423f-a5de-f531b828e2d3|2f1073e4-607f-423f-a5de-f531b828e2d3|2020-10-06|2020-10-30|2020-10-06|2021-01-13|2020-10-06|2021-01-13|||Campos|2020-12-23|55|YEARS|F|NOT REPORTED|HISPANIC OR LATINO|5-P-10|5mg - Placebo- 10mg|5-P-10|5mg - Placebo- 10mg|[?]|ESP|2020-12-22|78|
e|DM|df466903-3212-4e73-bff0-a183447c7408|df466903-3212-4e73-bff0-a183447c7408|2020-10-23|2020-12-25|2020-10-23|2021-01-30|2020-10-23|2021-01-30|||Soneiro|2020-12-16|39|YEARS|F|UNKNOWN|NOT REPORTED|5-P-10|5mg - Placebo- 10mg|5-P-10|5mg - Placebo- 10mg|[?]|ESP|2021-01-19|89|
e|DM|4eeb68ac-cd3a-4d3c-8381-2d715c8fa442|4eeb68ac-cd3a-4d3c-8381-2d715c8fa442|2020-07-04|2020-08-22|2020-07-04|2020-10-11|2020-07-04|2020-10-11|||Tor|2020-10-09|57|YEARS|M|NATIVE HAWAIIAN OR OTHER PACIFIC ISLANDER|NOT REPORTED|P-5-10|Placebo - 5mg - 10mg|P-5-10|Placebo - 5mg - 10mg|[?]|ESP|2020-08-28|56|
e|DM|c37df2f6-be8a-4709-b97d-061ab9754e0d|c37df2f6-be8a-4709-b97d-061ab9754e0d|2020-07-23|2020-09-01|2020-07-23|2020-10-30|2020-07-23|2020-10-30|||Estacion de Los Valles|2020-08-19|67|YEARS|M|UNKNOWN|HISPANIC OR LATINO|5-P-10|5mg - Placebo- 10mg|5-P-10|5mg - Placebo- 10mg|[?]|ESP|2020-09-21|61|
e|DM|c0120c9e-c421-4a2e-a85b-170f2d1c0f3f|c0120c9e-c421-4a2e-a85b-170f2d1c0f3f|2020-05-04|2020-06-29|2020-05-04|2020-08-11|2020-05-04|2020-08-11|||Galiana|2020-05-13|73|YEARS|F|AMERICAN INDIAN OR ALASKA NATIVE|NOT HISPANIC OR LATINO|5-P-10|5mg - Placebo- 10mg|5-P-10|5mg - Placebo- 10mg|[?]|ESP|2020-07-25|83|
e|DM|cec9e0ce-4d09-470c-9c26-df661d316a69|cec9e0ce-4d09-470c-9c26-df661d316a69|2020-12-27|2021-02-13|2020-12-27|2021-04-05|2020-12-27|2021-04-05|||Villaflores|2021-02-06|28|YEARS|M|AMERICAN INDIAN OR ALASKA NATIVE|NOT REPORTED|P-5-10|Placebo - 5mg - 10mg|P-5-10|Placebo - 5mg - 10mg|[?]|ESP|2021-02-13|49|
e|DM|b98b4e19-51ac-40cc-80d5-cb6d8000c112|b98b4e19-51ac-40cc-80d5-cb6d8000c112|2021-01-08|2021-01-19|2021-01-08|2021-04-17|2021-01-08|2021-04-17|||Matidero|2021-01-22|61|YEARS|M|ASIAN|NOT HISPANIC OR LATINO|5-P-10|5mg - Placebo- 10mg|5-P-10|5mg - Placebo- 10mg|[?]|ESP|2021-04-08|91|
e|DM|525e8b0c-b2cf-46b0-a1e1-9f5368ba97df|525e8b0c-b2cf-46b0-a1e1-9f5368ba97df|2020-06-28|2020-08-06|2020-06-28|2020-10-05|2020-06-28|2020-10-05|||Doriga|2020-09-13|36|YEARS|M|ASIAN|UNKNOWN|P-5-10|Placebo - 5mg - 10mg|P-5-10|Placebo - 5mg - 10mg|[?]|ESP|2020-07-12|15|
e|DM|4bc30b18-c8d8-41a3-91d5-33b8b064087b|4bc30b18-c8d8-41a3-91d5-33b8b064087b|2020-07-03|2020-09-28|2020-07-03|2020-10-10|2020-07-03|2020-10-10|||Calella|2020-09-08|61|YEARS|F|NATIVE HAWAIIAN OR OTHER PACIFIC ISLANDER|NOT REPORTED|5-P-10|5mg - Placebo- 10mg|5-P-10|5mg - Placebo- 10mg|[?]|ESP|2020-09-14|74|
e|DM|7ff27a70-0472-4cc1-b057-6b161ab29568|7ff27a70-0472-4cc1-b057-6b161ab29568|2020-11-10|2021-01-17|2020-11-10|2021-02-17|2020-11-10|2021-02-17|||Cabeza Gorda|2020-12-25|25|YEARS|F|WHITE|UNKNOWN|5-10-P|5mg - 10mg- Placebo|5-10-P|5mg - 10mg- Placebo|[?]|ESP|2020-11-19|10|
e|DM|40529b01-9a80-4ada-a8df-96eec0e65043|40529b01-9a80-4ada-a8df-96eec0e65043|2020-06-08|2020-08-19|2020-06-08|2020-09-15|2020-06-08|2020-09-15|||Canicouva|2020-09-03|48|YEARS|M|WHITE|NOT HISPANIC OR LATINO|5-P-10|5mg - Placebo- 10mg|5-P-10|5mg - Placebo- 10mg|[?]|ESP|2020-07-28|51|
e|DM|f3e22efc-0948-4c6e-9173-8e284d342d33|f3e22efc-0948-4c6e-9173-8e284d342d33|2020-11-27|2020-12-07|2020-11-27|2021-03-06|2020-11-27|2021-03-06|||Villar|2021-01-04|72|YEARS|F|NOT REPORTED|UNKNOWN|P-5-10|Placebo - 5mg - 10mg|P-5-10|Placebo - 5mg - 10mg|[?]|ESP|2021-01-24|59|
e|DM|919eb5b4-a3df-41c6-86f7-c78501bb4335|919eb5b4-a3df-41c6-86f7-c78501bb4335|2020-09-22|2020-12-15|2020-09-22|2020-12-30|2020-09-22|2020-12-30|||Aguadulce|2020-12-29|49|YEARS|F|ASIAN|HISPANIC OR LATINO|5-P-10|5mg - Placebo- 10mg|5-P-10|5mg - Placebo- 10mg|[?]|ESP|2020-10-03|12|
e|DM|f918d6e0-6fc2-4303-b323-521c5d531773|f918d6e0-6fc2-4303-b323-521c5d531773|2020-07-22|2020-08-18|2020-07-22|2020-10-29|2020-07-22|2020-10-29|||Rioseco Alto|2020-08-28|50|YEARS|F|NATIVE HAWAIIAN OR OTHER PACIFIC ISLANDER|NOT HISPANIC OR LATINO|P-5-10|Placebo - 5mg - 10mg|P-5-10|Placebo - 5mg - 10mg|[?]|ESP|2020-08-09|19|
e|DM|1d9bccfd-ab01-460f-b1b5-9d1859ee7f66|1d9bccfd-ab01-460f-b1b5-9d1859ee7f66|2020-11-15|2021-01-17|2020-11-15|2021-02-22|2020-11-15|2021-02-22|||Vieiro|2021-02-09|30|YEARS|F|AMERICAN INDIAN OR ALASKA NATIVE|HISPANIC OR LATINO|5-P-10|5mg - Placebo- 10mg|5-P-10|5mg - Placebo- 10mg|[?]|ESP|2021-02-09|87|
e|DM|4b1e011f-a16d-4ff6-902d-451d5d13ee97|4b1e011f-a16d-4ff6-902d-451d5d13ee97|2020-06-12|2020-08-01|2020-06-12|2020-09-19|2020-06-12|2020-09-19|||Oural|2020-08-08|36|YEARS|M|UNKNOWN|HISPANIC OR LATINO|5-10-P|5mg - 10mg- Placebo|5-10-P|5mg - 10mg- Placebo|[?]|ESP|2020-09-08|89|
e|DM|d6d26e31-eaa0-4d4b-9df3-3c3d6b38f571|d6d26e31-eaa0-4d4b-9df3-3c3d6b38f571|2020-07-10|2020-10-11|2020-07-10|2020-10-17|2020-07-10|2020-10-17|||Belmonte de Mezquin|2020-07-22|11|YEARS|M|NATIVE HAWAIIAN OR OTHER PACIFIC ISLANDER|NOT REPORTED|5-10-P|5mg - 10mg- Placebo|5-10-P|5mg - 10mg- Placebo|[?]|ESP|2020-10-09|92|
e|DM|b49e6f4b-862e-4ad5-8964-51c94d2a03ec|b49e6f4b-862e-4ad5-8964-51c94d2a03ec|2020-11-18|2021-02-20|2020-11-18|2021-02-25|2020-11-18|2021-02-25|||Rodenas|2020-12-12|49|YEARS|F|BLACK OR AFRICAN AMERICAN|UNKNOWN|5-P-10|5mg - Placebo- 10mg|5-P-10|5mg - Placebo- 10mg|[?]|ESP|2020-12-12|25|
e|DM|5c7645b5-5b4c-4280-878b-f5bd0e4349a7|5c7645b5-5b4c-4280-878b-f5bd0e4349a7|2020-11-30|2021-02-10|2020-11-30|2021-03-09|2020-11-30|2021-03-09|||Caserio Aniago|2020-12-18|17|YEARS|F|AMERICAN INDIAN OR ALASKA NATIVE|NOT HISPANIC OR LATINO|5-10-P|5mg - 10mg- Placebo|5-10-P|5mg - 10mg- Placebo|[?]|ESP|2021-02-15|78|
e|DM|87cd5d40-3ece-4e63-8f8f-13761cc94a2b|87cd5d40-3ece-4e63-8f8f-13761cc94a2b|2020-06-27|2020-09-27|2020-06-27|2020-10-04|2020-06-27|2020-10-04|||Caserio Los Vidales|2020-09-24|34|YEARS|M|WHITE|NOT REPORTED|5-10-P|5mg - 10mg- Placebo|5-10-P|5mg - 10mg- Placebo|[?]|ESP|2020-10-02|98|
e|DM|7f1e0661-ebbd-4abd-9031-cb6b424977e2|7f1e0661-ebbd-4abd-9031-cb6b424977e2|2020-12-04|2021-01-12|2020-12-04|2021-03-13|2020-12-04|2021-03-13|||Relleu|2021-01-25|50|YEARS|M|WHITE|NOT REPORTED|P-5-10|Placebo - 5mg - 10mg|P-5-10|Placebo - 5mg - 10mg|[?]|ESP|2020-12-26|23|
e|DM|324a2c67-4802-4806-aff2-04fb9c7394d4|324a2c67-4802-4806-aff2-04fb9c7394d4|2020-05-18|2020-06-01|2020-05-18|2020-08-25|2020-05-18|2020-08-25|||Corvera|2020-05-29|56|YEARS|M|BLACK OR AFRICAN AMERICAN|NOT HISPANIC OR LATINO|5-10-P|5mg - 10mg- Placebo|5-10-P|5mg - 10mg- Placebo|[?]|ESP|2020-06-11|25|
e|DM|9e6a2b90-c6ec-4d7d-96a3-8445f34ad4e7|9e6a2b90-c6ec-4d7d-96a3-8445f34ad4e7|2020-12-10|2020-12-28|2020-12-10|2021-03-19|2020-12-10|2021-03-19|||Casla|2020-12-29|20|YEARS|F|NATIVE HAWAIIAN OR OTHER PACIFIC ISLANDER|NOT HISPANIC OR LATINO|P-5-10|Placebo - 5mg - 10mg|P-5-10|Placebo - 5mg - 10mg|[?]|ESP|2021-02-10|63|
e|DM|f00837ad-bf06-4fbc-a50b-289ac5c5dc03|f00837ad-bf06-4fbc-a50b-289ac5c5dc03|2020-08-15|2020-09-22|2020-08-15|2020-11-22|2020-08-15|2020-11-22|||Velilla de Cinca|2020-10-31|71|YEARS|M|ASIAN|UNKNOWN|P-5-10|Placebo - 5mg - 10mg|P-5-10|Placebo - 5mg - 10mg|[?]|ESP|2020-10-04|51|
e|DM|911dc297-91cb-42b1-8a26-18f6c83c32a6|911dc297-91cb-42b1-8a26-18f6c83c32a6|2020-11-22|2021-02-17|2020-11-22|2021-03-01|2020-11-22|2021-03-01|||San Juan de Vilasar|2020-11-24|71|YEARS|M|NATIVE HAWAIIAN OR OTHER PACIFIC ISLANDER|NOT REPORTED|5-P-10|5mg - Placebo- 10mg|5-P-10|5mg - Placebo- 10mg|[?]|ESP|2020-11-24|3|
e|DM|d87b795c-d158-4429-bdc6-1a2db7dc1a7d|d87b795c-d158-4429-bdc6-1a2db7dc1a7d|2020-11-16|2021-01-12|2020-11-16|2021-02-23|2020-11-16|2021-02-23|||Pedrosa de Duero|2021-02-04|14|YEARS|M|UNKNOWN|HISPANIC OR LATINO|5-10-P|5mg - 10mg- Placebo|5-10-P|5mg - 10mg- Placebo|[?]|ESP|2020-12-29|44|
e|DM|9bfcd733-2233-4e54-a6cd-641a59fc8a01|9bfcd733-2233-4e54-a6cd-641a59fc8a01|2020-08-06|2020-09-12|2020-08-06|2020-11-13|2020-08-06|2020-11-13|||Castroane|2020-09-07|31|YEARS|M|UNKNOWN|NOT HISPANIC OR LATINO|P-5-10|Placebo - 5mg - 10mg|P-5-10|Placebo - 5mg - 10mg|[?]|ESP|2020-08-12|7|
e|DM|7eb97152-173c-4923-8604-5dad3140cc25|7eb97152-173c-4923-8604-5dad3140cc25|2020-08-27|2020-09-18|2020-08-27|2020-12-04|2020-08-27|2020-12-04|||Leira|2020-09-24|45|YEARS|F|UNKNOWN|UNKNOWN|P-5-10|Placebo - 5mg - 10mg|P-5-10|Placebo - 5mg - 10mg|[?]|ESP|2020-11-26|92|
