STUDYID|DOMAIN|USUBJID|DVSEQ|DVTERM|DVDECOD|DVCAT|TAETORD|EPOCH|DVSTDTC|DVENDTC|DVSTDY|DVENDY
e|DV|35f5401f-575a-44dc-9141-8084716a5b70|1|[?]|[?]|[?]|4|TREATMENT|2020-10-21|2020-10-23|11|13
e|DV|8a863a88-67d8-4e50-bafa-c3146591f046|1|[?]|[?]|[?]|4|TREATMENT|2021-01-04|2021-02-16|16|59
e|DV|f8e8acef-d26d-40c0-9bf0-fe7ac24c9fea|1|[?]|[?]|[?]|7|TREATMENT|2020-08-01|2020-09-06|8|44
e|DV|0558cb35-f542-4f9a-a7e7-18b1d71be69c|1|[?]|[?]|[?]|1|WASHOUT|2021-03-05|2021-03-14|85|94
e|DV|a9cf4d21-c2a8-4f32-b932-f05d2d317400|1|[?]|[?]|[?]|7|TREATMENT|2020-07-25|2020-09-24|32|93
e|DV|0389257f-50de-4a05-8f2a-69c068374337|1|[?]|[?]|[?]|5|TREATMENT|2020-10-06|2020-11-20|8|53
e|DV|279ca0c7-7c4e-4cd7-a3b6-87bc5c037352|1|[?]|[?]|[?]|4|TREATMENT|2020-12-09|2020-12-11|4|6
e|DV|ca4e757f-268f-4f3f-b0d0-950bf9c26b08|1|[?]|[?]|[?]|4|SCREENING|2021-02-17|2021-02-27|67|77
e|DV|ad402b62-0625-431b-9bd7-ffd6124610f3|1|[?]|[?]|[?]|1|TREATMENT|2020-09-23|2020-10-09|8|24
e|DV|d76b0f55-541c-491d-9162-4c133c9509f1|1|[?]|[?]|[?]|3|TREATMENT|2020-05-31|2020-06-01|17|18
e|DV|146059d8-5652-41cd-b484-c6e5d8ea540f|1|[?]|[?]|[?]|7|SCREENING|2020-08-21|2020-09-25|5|40
e|DV|3d5f1964-b65c-4a0a-bb5b-1689308754d8|1|[?]|[?]|[?]|7|TREATMENT|2020-11-04|2020-12-28|10|64
e|DV|129dc836-068a-463e-b789-a0d05c60605d|1|[?]|[?]|[?]|3|TREATMENT|2020-08-06|2020-08-13|41|48
e|DV|9ef8a6d4-8326-4050-be85-e9f8983f55c1|1|[?]|[?]|[?]|1|WASHOUT|2020-12-04|2021-01-16|37|80
e|DV|b91c4469-b3be-467f-8512-b73cf561e168|1|[?]|[?]|[?]|6|TREATMENT|2020-06-16|2020-07-25|39|78
e|DV|3637e1e0-8c0c-45cc-b139-e812a589f940|1|[?]|[?]|[?]|4|TREATMENT|2020-08-24|2020-09-02|4|13
e|DV|23385974-5fcd-4c36-b9fa-2fbb3841f182|1|[?]|[?]|[?]|2|TREATMENT|2020-12-03|2020-12-06|16|19
e|DV|b76a836f-57ee-4e3d-89c4-31fdef04e5fe|1|[?]|[?]|[?]|4|SCREENING|2020-12-07|2021-01-10|11|45
e|DV|f1327e16-08c6-4ef0-852e-13c095a94c00|1|[?]|[?]|[?]|3|TREATMENT|2020-06-08|2020-07-29|23|74
e|DV|52de3d1f-e750-49f3-9cfa-09ac97a5dd4b|1|[?]|[?]|[?]|7|TREATMENT|2021-01-10|2021-03-01|5|55
e|DV|e8065021-c163-41c8-8a76-5f0c1c3a06c4|1|[?]|[?]|[?]|3|SCREENING|2020-12-17|2021-03-03|19|95
e|DV|854a9218-995e-47f4-87ab-e58d20f56d19|1|[?]|[?]|[?]|4|TREATMENT|2020-11-23|2020-11-26|10|13
e|DV|7865f4e0-11d8-45f7-b0d1-0fd7bb4c1311|1|[?]|[?]|[?]|2|TREATMENT|2020-06-20|2020-07-25|9|44
e|DV|08944dcd-a62d-4932-bb15-a8f15cc73229|1|[?]|[?]|[?]|6|WASHOUT|2021-01-13|2021-02-14|31|63
e|DV|1d7df560-695a-41fe-9226-4cc206b05f48|1|[?]|[?]|[?]|2|TREATMENT|2020-12-28|2021-02-10|29|73
e|DV|12c802a8-862c-45a4-b12c-a6f920772534|1|[?]|[?]|[?]|1|TREATMENT|2020-07-31|2020-08-03|54|57
e|DV|1ac2ce3b-f73f-4a46-a8fe-ea44dfc635a3|1|[?]|[?]|[?]|4|TREATMENT|2020-12-08|2020-12-12|25|29
e|DV|6c1628af-ea1b-40ea-80fd-667bcfc29a4b|1|[?]|[?]|[?]|3|TREATMENT|2020-09-16|2020-10-27|41|82
e|DV|96114171-59a0-4543-b3ec-c7796ae8ee92|1|[?]|[?]|[?]|6|TREATMENT|2020-11-20|2020-12-30|6|46
e|DV|0070d42d-c864-4a83-a3c9-4c8ca7de51de|1|[?]|[?]|[?]|1|TREATMENT|2020-08-08|2020-08-26|3|21
e|DV|a2ec3389-6f5f-44a3-a6dd-f6177a805791|1|[?]|[?]|[?]|2|SCREENING|2020-10-16|2020-12-11|9|65
e|DV|cc562042-9641-460d-862e-d6923dd4207d|1|[?]|[?]|[?]|4|WASHOUT|2020-06-26|2020-06-28|40|42
e|DV|d0a4f2af-eb3c-4f04-b16d-b3ef5a8d0646|1|[?]|[?]|[?]|6|TREATMENT|2020-08-27|2020-09-25|38|67
e|DV|d90f2824-692e-403f-b1ca-5b6462c93a75|1|[?]|[?]|[?]|3|SCREENING|2020-09-25|2020-10-04|82|91
e|DV|ee0e55e1-6107-4a3c-85b4-cb48300153e8|1|[?]|[?]|[?]|3|FOLLOW-UP|2020-07-16|2020-07-19|62|65
e|DV|6aa37bb3-85aa-427f-9e56-a776257f1548|1|[?]|[?]|[?]|7|TREATMENT|2020-12-01|2020-12-31|27|57
e|DV|592c5ea9-d4ca-4c3a-a836-6d88f2b93303|1|[?]|[?]|[?]|3|FOLLOW-UP|2020-05-19|2020-07-26|11|79
e|DV|940d4614-b41a-44d3-b878-6e19ee22f24b|1|[?]|[?]|[?]|7|SCREENING|2020-06-30|2020-07-22|4|26
e|DV|e2edd4f0-926b-4514-bf3f-7449f248343f|1|[?]|[?]|[?]|3|TREATMENT|2020-11-28|2020-12-24|37|63
e|DV|215d711d-c98a-4f7b-ba41-d2c06ad70ddd|1|[?]|[?]|[?]|3|FOLLOW-UP|2020-07-03|2020-07-24|15|36
e|DV|493a53ef-01ab-470c-9bbe-7c2aa48b946b|1|[?]|[?]|[?]|1|TREATMENT|2020-07-07|2020-10-04|4|93
e|DV|ba33de14-b676-4389-a863-a7fa3edb8543|1|[?]|[?]|[?]|5|TREATMENT|2020-11-17|2020-12-15|24|52
e|DV|24801f05-79be-433d-8124-85580bc14c4f|1|[?]|[?]|[?]|4|TREATMENT|2020-10-28|2020-12-06|59|98
e|DV|02df80f9-2337-4abd-9452-41cd83dec8ba|1|[?]|[?]|[?]|7|WASHOUT|2020-08-08|2020-09-30|14|67
e|DV|d9eea93b-f9f9-466c-aa8a-a250baff18ef|1|[?]|[?]|[?]|1|FOLLOW-UP|2020-10-06|2020-10-19|74|87
e|DV|35a59f6a-2712-4d1b-a954-f1418d4b9168|1|[?]|[?]|[?]|5|TREATMENT|2020-11-26|2020-12-10|31|45
e|DV|ecfa7c81-fd68-4b8c-8305-65e1ecbff67f|1|[?]|[?]|[?]|6|SCREENING|2020-12-09|2021-01-07|39|68
e|DV|7fa3d0ff-fd49-4114-bebe-1c27765f01b8|1|[?]|[?]|[?]|3|TREATMENT|2020-06-23|2020-08-03|51|92
e|DV|d041952e-4aa6-4b37-9cec-127adce2eabb|1|[?]|[?]|[?]|5|TREATMENT|2020-10-16|2020-12-29|17|91
e|DV|7f0ceec0-eda9-40ea-b2e8-90ba6bf3d115|1|[?]|[?]|[?]|4|TREATMENT|2020-06-03|2020-08-27|4|89
e|DV|9fc393da-4665-4be5-a869-856c45ddcf13|1|[?]|[?]|[?]|5|TREATMENT|2020-06-21|2020-08-30|13|83
e|DV|cddc1541-4de9-45e7-bb61-15a2d5baca6f|1|[?]|[?]|[?]|1|TREATMENT|2021-01-16|2021-01-26|7|17
e|DV|303c6dbe-59f9-4016-baa1-8506c0c1ee09|1|[?]|[?]|[?]|1|WASHOUT|2020-12-18|2020-12-23|2|7
e|DV|fee3c810-3d76-4db4-9272-6b4e8fd14088|1|[?]|[?]|[?]|4|SCREENING|2020-12-15|2020-12-20|10|15
e|DV|d5125e6c-2ab6-4286-8ce0-0011f1e08fbb|1|[?]|[?]|[?]|4|TREATMENT|2020-08-07|2020-08-27|40|60
e|DV|2e6e4c1d-4976-4f32-bd2e-8db09440f7b3|1|[?]|[?]|[?]|5|FOLLOW-UP|2020-10-05|2020-10-15|75|85
e|DV|47fad45a-9a4c-47ee-a863-089d979523b5|1|[?]|[?]|[?]|6|TREATMENT|2020-10-17|2020-10-21|20|24
e|DV|317b8b6d-9638-44a3-816f-7f3fca1e01a3|1|[?]|[?]|[?]|1|FOLLOW-UP|2020-07-21|2020-08-01|69|80
e|DV|3bad8e12-9a92-4227-a3f6-b3eac8fa57ec|1|[?]|[?]|[?]|7|SCREENING|2020-09-04|2020-09-14|66|76
e|DV|e7cee930-54f6-482e-b782-01aed0f0db06|1|[?]|[?]|[?]|5|TREATMENT|2021-01-12|2021-01-26|15|29
e|DV|4f0e0353-bd4b-45ee-9e21-40489b5f8d2f|1|[?]|[?]|[?]|5|WASHOUT|2021-01-19|2021-01-26|8|15
e|DV|f754ae7d-0776-41c0-988c-8cf2879d85da|1|[?]|[?]|[?]|3|WASHOUT|2020-09-09|2020-10-31|2|54
e|DV|8a8d8c31-ae36-4a64-90da-ba5eb473e420|1|[?]|[?]|[?]|7|TREATMENT|2020-06-28|2020-08-27|13|73
e|DV|482e40c9-2908-4269-b93c-61c311e9fde3|1|[?]|[?]|[?]|5|WASHOUT|2020-07-13|2020-09-20|7|76
e|DV|f7cfb281-0556-4316-9373-65edf63c4b23|1|[?]|[?]|[?]|7|SCREENING|2020-08-02|2020-08-16|44|58
e|DV|e0b03cb9-aa73-48c8-b05b-4a506ecf077b|1|[?]|[?]|[?]|5|WASHOUT|2021-01-07|2021-02-18|7|49
e|DV|9ed8a578-a82a-423a-81ca-ee87f98d62f7|1|[?]|[?]|[?]|4|TREATMENT|2020-09-25|2020-10-26|33|64
e|DV|2214af46-1072-4328-bf3d-f4fe9cd97d9b|1|[?]|[?]|[?]|2|FOLLOW-UP|2020-11-05|2020-11-29|28|52
e|DV|7e56eb43-62a6-45ac-9476-1d0655595a04|1|[?]|[?]|[?]|5|TREATMENT|2021-02-16|2021-04-19|33|95
e|DV|73a8e85a-0b5f-496b-b164-afc4d1f02de2|1|[?]|[?]|[?]|1|TREATMENT|2020-07-22|2020-08-02|33|44
e|DV|84f74359-c79b-4f1c-8119-a4993b071973|1|[?]|[?]|[?]|7|WASHOUT|2020-05-12|2020-05-26|10|24
e|DV|d6ff71b7-6a5f-415f-8267-15c9c1f5585c|1|[?]|[?]|[?]|1|TREATMENT|2020-12-04|2021-01-13|38|78
e|DV|cd0c969e-61c6-4c65-ac19-4ee247f5009a|1|[?]|[?]|[?]|4|TREATMENT|2020-10-04|2020-10-17|35|48
e|DV|1fff484d-0a68-42cd-8eff-bc4fe4da945c|1|[?]|[?]|[?]|2|SCREENING|2021-02-12|2021-03-17|25|58
e|DV|e2c20e9a-0ac5-4907-96de-472bee70bd79|1|[?]|[?]|[?]|6|WASHOUT|2020-11-26|2020-12-04|2|10
e|DV|6064ca8c-b723-4d05-914a-bb547d86fcc5|1|[?]|[?]|[?]|4|WASHOUT|2020-05-31|2020-06-09|8|17
e|DV|8effbbff-acda-4718-89f1-e30a418f6bae|1|[?]|[?]|[?]|7|FOLLOW-UP|2020-11-07|2020-11-18|11|22
e|DV|859b16a5-f6a2-40cc-8e01-18c112b1969e|1|[?]|[?]|[?]|6|WASHOUT|2020-08-14|2020-09-10|6|33
e|DV|36b457ef-4cf6-4043-a836-49368ebf3f1c|1|[?]|[?]|[?]|5|TREATMENT|2020-09-02|2020-11-07|27|93
e|DV|31f33e38-bba6-4c8a-b563-14afaabae5d7|1|[?]|[?]|[?]|4|TREATMENT|2020-07-04|2020-09-10|13|81
e|DV|6794dffe-333b-425b-8883-26f6e5ba0797|1|[?]|[?]|[?]|6|TREATMENT|2020-07-17|2020-09-25|18|88
e|DV|d7d9a12d-6bb1-44a2-a008-6a5bae013d40|1|[?]|[?]|[?]|4|TREATMENT|2020-08-16|2020-08-17|80|81
e|DV|45897452-8f5a-458d-9a43-13237460ba48|1|[?]|[?]|[?]|7|SCREENING|2020-11-06|2020-11-14|5|13
e|DV|16eb981f-2118-4658-a83f-93d925c410c9|1|[?]|[?]|[?]|5|TREATMENT|2020-12-11|2021-01-14|5|39
e|DV|3f3ade8a-e27b-4f20-8b4d-69c7bae520c1|1|[?]|[?]|[?]|1|WASHOUT|2021-01-20|2021-02-15|19|45
e|DV|d99a6a66-accf-4a8e-b696-b6d5b4ce249c|1|[?]|[?]|[?]|7|TREATMENT|2021-01-24|2021-03-03|5|43
e|DV|874f491c-5d55-4738-86b7-b1200b16d106|1|[?]|[?]|[?]|7|TREATMENT|2021-01-05|2021-01-12|7|14
e|DV|281ccdef-794c-49ad-9616-6f6f68dd4543|1|[?]|[?]|[?]|6|SCREENING|2020-05-29|2020-08-01|4|68
e|DV|b1179e10-e8fe-472c-a511-d6d460571857|1|[?]|[?]|[?]|3|SCREENING|2020-08-18|2020-09-21|26|60
e|DV|6362cf42-f286-4151-bdf7-38fcc5639eed|1|[?]|[?]|[?]|7|WASHOUT|2020-09-09|2020-09-16|12|19
e|DV|8e28e3ab-0060-43f7-b033-c16bd77c0e29|1|[?]|[?]|[?]|7|FOLLOW-UP|2020-12-15|2021-02-24|25|96
e|DV|d0f0a002-b5cd-468a-98ff-e0eeaa5969e7|1|[?]|[?]|[?]|6|FOLLOW-UP|2020-07-27|2020-07-29|40|42
e|DV|0c1fcd0e-847b-4bf1-82c1-5d749742cc5b|1|[?]|[?]|[?]|3|TREATMENT|2020-07-01|2020-07-04|19|22
e|DV|43880587-c397-402d-886b-9b666e3fe455|1|[?]|[?]|[?]|5|TREATMENT|2020-07-17|2020-09-28|6|79
e|DV|807f83d2-9364-4ee4-855d-304f3e252555|1|[?]|[?]|[?]|7|SCREENING|2020-06-01|2020-06-02|28|29
e|DV|45dd95cd-857f-4cbd-89d7-640a8ed74fd8|1|[?]|[?]|[?]|7|TREATMENT|2021-02-19|2021-02-25|82|88
e|DV|81c33633-6ade-45fe-a78e-0e853d8aa9c2|1|[?]|[?]|[?]|2|FOLLOW-UP|2020-08-09|2020-09-02|4|28
e|DV|62f3a2a8-f181-4d95-a9b3-a94cd71594a3|1|[?]|[?]|[?]|3|TREATMENT|2020-07-26|2020-08-02|4|11
e|DV|7d6e9afe-919e-481a-87d5-bbaf7ca2ec6c|1|[?]|[?]|[?]|3|SCREENING|2020-09-12|2020-11-22|21|92
e|DV|84ccf2f8-8b9d-486c-8aad-a11bc45ed4f5|1|[?]|[?]|[?]|5|WASHOUT|2021-03-30|2021-04-07|72|80
e|DV|21740641-69bb-49a9-a86d-2444914f6d12|1|[?]|[?]|[?]|5|WASHOUT|2020-06-03|2020-06-08|27|32
e|DV|c3984f41-30a0-49a4-a8bd-f36fad4621a8|1|[?]|[?]|[?]|2|WASHOUT|2020-07-10|2020-08-03|32|56
e|DV|1ae9a175-fd7a-4215-adc4-ce6bd220f94d|1|[?]|[?]|[?]|7|TREATMENT|2021-01-18|2021-01-21|7|10
e|DV|0f85b859-187d-4c6b-8873-33c0f18d3e3c|1|[?]|[?]|[?]|4|TREATMENT|2020-07-23|2020-07-30|9|16
e|DV|5e383a9d-dc97-4352-8add-d55a1a566b9f|1|[?]|[?]|[?]|4|WASHOUT|2020-10-17|2020-10-26|30|39
e|DV|3eda746b-fb97-4950-a528-1d4ae5d3653a|1|[?]|[?]|[?]|3|TREATMENT|2020-07-13|2020-09-04|40|93
e|DV|a3b72841-3401-4dcc-9d06-75438b408d0b|1|[?]|[?]|[?]|3|WASHOUT|2020-12-17|2021-01-20|52|86
e|DV|4393406e-bda5-42e4-a752-a8121004b7ef|1|[?]|[?]|[?]|5|WASHOUT|2020-11-12|2020-11-14|25|27
e|DV|d70f5903-3d94-422b-8f69-212f015b54c9|1|[?]|[?]|[?]|1|TREATMENT|2020-06-14|2020-06-21|36|43
e|DV|ef772266-faf1-4904-8ac3-19cbc3ea7d36|1|[?]|[?]|[?]|7|FOLLOW-UP|2021-02-11|2021-03-01|46|64
e|DV|c0f9c36c-1ae5-4f80-b936-0afe3f661746|1|[?]|[?]|[?]|5|WASHOUT|2020-07-28|2020-08-08|24|35
e|DV|f17b5630-e782-4135-8a50-4a9bb2fe63b1|1|[?]|[?]|[?]|4|TREATMENT|2020-12-11|2021-01-29|22|71
e|DV|8bdb40c9-1e44-45ae-bf08-81ea635fd762|1|[?]|[?]|[?]|5|SCREENING|2020-12-26|2021-02-11|3|50
e|DV|c010dfcb-c1bb-4b4f-b58c-f4986ee86384|1|[?]|[?]|[?]|7|TREATMENT|2021-03-02|2021-04-15|55|99
e|DV|296f8314-5a07-47b5-8796-31afe709b379|1|[?]|[?]|[?]|2|SCREENING|2020-08-25|2020-09-12|58|76
e|DV|ae1e4047-f4d7-47fa-a5f6-974f9a9c2a48|1|[?]|[?]|[?]|6|SCREENING|2020-12-21|2021-02-28|18|87
e|DV|b06043ae-8251-4df8-ab6d-0ceb269c1a42|1|[?]|[?]|[?]|4|WASHOUT|2021-01-20|2021-03-09|5|53
e|DV|d4fb5b9e-e244-4818-be3d-dbb57faacd43|1|[?]|[?]|[?]|6|FOLLOW-UP|2020-11-11|2020-11-23|14|26
e|DV|7e6cbcf1-7175-4b46-b82f-32189cfcf6bb|1|[?]|[?]|[?]|4|TREATMENT|2020-08-06|2020-09-27|34|86
e|DV|26e6a3e9-7e84-4c99-b1b9-0608b6d73512|1|[?]|[?]|[?]|5|TREATMENT|2021-01-20|2021-02-06|16|33
e|DV|b1215705-4c22-43bd-aa65-58bd8745f081|1|[?]|[?]|[?]|5|TREATMENT|2020-07-07|2020-07-27|2|22
e|DV|b99c6528-af4e-42f5-8d2d-18943b57d55a|1|[?]|[?]|[?]|1|WASHOUT|2020-10-17|2020-12-03|2|49
e|DV|6848e438-51ca-4a7d-8f81-26c375969a64|1|[?]|[?]|[?]|5|FOLLOW-UP|2020-11-06|2020-11-17|4|15
e|DV|a6e11c33-7905-42d2-bda9-671d756d4c51|1|[?]|[?]|[?]|7|TREATMENT|2020-08-29|2020-09-10|33|45
e|DV|441d3bc1-c95e-4e52-bd1b-7713f3a2cd8c|1|[?]|[?]|[?]|7|WASHOUT|2020-12-10|2020-12-27|38|55
e|DV|8ef37b54-b463-43a4-879f-3ad653c4fef4|1|[?]|[?]|[?]|5|TREATMENT|2020-10-21|2020-11-01|50|61
e|DV|cf10035c-4d44-4512-810b-c267d1c8821b|1|[?]|[?]|[?]|7|FOLLOW-UP|2020-07-28|2020-08-12|72|87
e|DV|f24e5ff9-ebe2-4dfe-88ed-1705eb410c9b|1|[?]|[?]|[?]|5|SCREENING|2020-07-24|2020-07-25|2|3
e|DV|a1e0035a-3328-4966-8664-82e53a44eb59|1|[?]|[?]|[?]|5|TREATMENT|2020-08-08|2020-09-11|8|42
e|DV|771377fd-724f-4056-b2ea-84e1adab1f47|1|[?]|[?]|[?]|2|TREATMENT|2020-11-27|2020-12-10|29|42
e|DV|8e3ae12f-e4d8-4bcd-b444-979496e0cfe1|1|[?]|[?]|[?]|4|TREATMENT|2020-11-07|2020-11-20|86|99
e|DV|3aea0861-8f67-4717-93ce-c1e322f151d9|1|[?]|[?]|[?]|6|TREATMENT|2020-08-21|2020-09-20|17|47
e|DV|4fbe2ae7-4b86-4706-845c-d1f22f1a822f|1|[?]|[?]|[?]|7|WASHOUT|2020-09-28|2020-10-02|3|7
e|DV|ec63ad33-0411-4d12-af68-e2cda3a3f1ac|1|[?]|[?]|[?]|2|WASHOUT|2020-12-26|2021-02-12|6|54
e|DV|39f51bd8-5edc-4434-92d4-7d8b683a6c32|1|[?]|[?]|[?]|5|FOLLOW-UP|2020-09-16|2020-09-30|7|21
e|DV|80565a22-8cec-46a2-abd7-91daf0767035|1|[?]|[?]|[?]|3|TREATMENT|2021-01-30|2021-02-16|12|29
e|DV|585a254e-c36b-44cf-b8a9-335fb98e0fd2|1|[?]|[?]|[?]|3|FOLLOW-UP|2020-12-18|2021-01-09|70|92
e|DV|9ee3632d-4e99-4a46-b0b9-237467d97ca0|1|[?]|[?]|[?]|5|TREATMENT|2020-09-29|2020-10-14|30|45
e|DV|be576e43-f39f-4e7b-9df3-e3a3e1f52d7d|1|[?]|[?]|[?]|5|SCREENING|2020-06-09|2020-06-11|3|5
e|DV|34b2090b-13ac-4fb2-8d87-eca2839a62f2|1|[?]|[?]|[?]|7|SCREENING|2020-06-10|2020-06-27|13|30
e|DV|bfc19b4b-51bb-4056-9195-8bd2db53a497|1|[?]|[?]|[?]|6|TREATMENT|2020-09-16|2020-09-18|62|64
e|DV|8620aadd-f97d-4bc1-9466-7e5a96ccc66f|1|[?]|[?]|[?]|5|TREATMENT|2020-11-22|2020-12-14|72|94
e|DV|64a70103-14bf-42f4-808b-fbdecec8bd4f|1|[?]|[?]|[?]|6|TREATMENT|2020-09-06|2020-09-10|7|11
e|DV|00f3949b-b14a-47c5-942c-2ab71e03e40f|1|[?]|[?]|[?]|7|TREATMENT|2021-02-04|2021-04-09|26|90
e|DV|bf3676e3-b1aa-48cc-b5ae-ac6427d2b7d6|1|[?]|[?]|[?]|1|TREATMENT|2020-12-20|2021-02-23|3|68
e|DV|c0d878ab-28d2-4c98-b1a9-26cd3fd3fd1e|1|[?]|[?]|[?]|3|TREATMENT|2020-08-11|2020-09-13|33|66
e|DV|44ca1fe6-76d2-4a94-9854-1ddbde638803|1|[?]|[?]|[?]|4|FOLLOW-UP|2020-07-11|2020-07-11|2|2
e|DV|edc935ed-3b94-43fa-9b7f-facf6eb6780e|1|[?]|[?]|[?]|5|TREATMENT|2020-12-16|2020-12-27|22|33
e|DV|f997ad2a-e9b1-4341-96d5-caef4bcb7196|1|[?]|[?]|[?]|4|SCREENING|2020-07-02|2020-08-23|34|86
e|DV|5a56874f-10e4-4cd0-842f-19552a04d1bd|1|[?]|[?]|[?]|7|TREATMENT|2020-06-19|2020-09-07|9|89
e|DV|f1d4ebe5-fc72-447b-8872-67e971ff471b|1|[?]|[?]|[?]|4|TREATMENT|2020-12-26|2021-01-17|58|80
e|DV|2a141b73-e336-4701-9067-8d51d532596b|1|[?]|[?]|[?]|2|WASHOUT|2020-07-27|2020-08-31|55|90
e|DV|4adf9a2c-3c43-4289-8156-1a109791580c|1|[?]|[?]|[?]|1|FOLLOW-UP|2020-12-17|2020-12-28|35|46
e|DV|1781d0c2-60c1-49df-98ed-e7dbc63e5b40|1|[?]|[?]|[?]|6|TREATMENT|2020-05-28|2020-07-22|15|70
e|DV|1b2eda86-2d2c-4fdc-a88e-409ea5180603|1|[?]|[?]|[?]|5|FOLLOW-UP|2020-05-11|2020-06-17|2|39
e|DV|fc02184a-dfba-4964-be3a-cfa5f5d7200e|1|[?]|[?]|[?]|6|TREATMENT|2020-07-18|2020-07-27|63|72
e|DV|37c59cfa-b952-4d16-a675-5e3b3a2e0288|1|[?]|[?]|[?]|6|WASHOUT|2020-06-14|2020-07-08|26|50
e|DV|11130b2c-e9fd-4a50-87ee-5dfa19199eba|1|[?]|[?]|[?]|6|TREATMENT|2020-12-13|2020-12-19|20|26
e|DV|08e4310f-f868-4858-a321-f33a21a771e8|1|[?]|[?]|[?]|5|SCREENING|2020-05-31|2020-06-04|26|30
e|DV|29edf133-8b5b-46d5-bf7a-f75af4658417|1|[?]|[?]|[?]|2|TREATMENT|2020-09-24|2020-11-13|43|93
e|DV|49756233-e18f-4187-8d48-3b6b4fa7e5c2|1|[?]|[?]|[?]|1|TREATMENT|2020-08-03|2020-09-28|4|60
e|DV|7a046104-7215-4708-9d85-66683ceb8fe8|1|[?]|[?]|[?]|5|TREATMENT|2020-10-27|2020-11-04|21|29
e|DV|6a22373a-8b46-4b5a-94b2-fee3bcd59dda|1|[?]|[?]|[?]|2|TREATMENT|2021-04-14|2021-04-20|88|94
e|DV|bcbe7d50-2ebe-483a-9d71-dce4094f864e|1|[?]|[?]|[?]|4|FOLLOW-UP|2020-07-28|2020-08-12|74|89
e|DV|2550ba24-7bcf-41e2-9eae-536e13d4b345|1|[?]|[?]|[?]|6|TREATMENT|2021-01-15|2021-02-06|5|27
e|DV|aeec3c61-c825-482e-b77e-a9b8e0bb1f68|1|[?]|[?]|[?]|3|TREATMENT|2020-08-27|2020-09-19|23|46
e|DV|6ec23671-252e-4dc9-b919-88254fce68a5|1|[?]|[?]|[?]|5|TREATMENT|2020-07-28|2020-09-20|10|64
e|DV|db59e5e1-ccda-480b-8955-da5157e16c4a|1|[?]|[?]|[?]|1|TREATMENT|2020-06-04|2020-07-17|31|74
e|DV|1dce856e-b7cb-4899-b27f-87ab8d918df4|1|[?]|[?]|[?]|4|TREATMENT|2020-09-04|2020-09-14|2|12
e|DV|7449180b-e226-4e97-a059-8760f6523f77|1|[?]|[?]|[?]|4|TREATMENT|2020-06-30|2020-07-04|6|10
e|DV|f077c497-b0f0-4a20-b448-608b0cc6ab36|1|[?]|[?]|[?]|1|TREATMENT|2020-07-10|2020-07-11|42|43
e|DV|172f12c6-0d7f-4e9b-be14-b64b94a26f9a|1|[?]|[?]|[?]|3|WASHOUT|2020-07-20|2020-07-23|48|51
e|DV|3f7c46ac-fe30-4ef3-a581-99c064a85efa|1|[?]|[?]|[?]|2|TREATMENT|2021-02-22|2021-03-09|52|67
e|DV|8d944400-df75-4ec7-8fb4-239eb0f6de9d|1|[?]|[?]|[?]|4|TREATMENT|2020-09-27|2020-12-20|15|99
e|DV|7b201f93-bd8c-4507-a7b7-27a02e364647|1|[?]|[?]|[?]|6|SCREENING|2021-01-22|2021-02-09|40|58
e|DV|fbc3f1fc-c3e7-4db5-8156-77ba9a459073|1|[?]|[?]|[?]|1|TREATMENT|2020-08-16|2020-09-01|21|37
e|DV|3611b798-9b3d-4173-b23e-3017939847e0|1|[?]|[?]|[?]|2|FOLLOW-UP|2020-10-10|2020-10-27|78|95
e|DV|f651799b-9723-4c2c-88d1-de2f347e9a69|1|[?]|[?]|[?]|4|FOLLOW-UP|2020-06-27|2020-08-30|13|77
e|DV|51c6f0e2-6a67-40cd-aac8-fd4cd0188b42|1|[?]|[?]|[?]|7|SCREENING|2020-11-10|2020-12-15|32|67
e|DV|29b16c31-df0e-493c-a777-46113b904879|1|[?]|[?]|[?]|6|TREATMENT|2020-07-12|2020-07-14|45|47
e|DV|56b7d8fb-23b2-4f0a-9bc6-8e6621937251|1|[?]|[?]|[?]|2|WASHOUT|2020-08-04|2020-09-15|14|56
e|DV|118914c8-9f6a-47c8-b427-296a99547756|1|[?]|[?]|[?]|1|FOLLOW-UP|2020-10-18|2020-10-22|3|7
e|DV|9b936ec9-01d9-4626-8d6d-83f3a1aefd96|1|[?]|[?]|[?]|2|TREATMENT|2020-12-01|2020-12-13|2|14
e|DV|571cbffe-c3e1-4f18-a9f7-cf11a4058f2c|1|[?]|[?]|[?]|7|TREATMENT|2021-02-16|2021-03-06|49|67
e|DV|7a5ae465-03b9-4006-a29e-94822ed857aa|1|[?]|[?]|[?]|7|TREATMENT|2020-06-25|2020-08-10|3|49
e|DV|179801c9-6c40-4d58-b8a6-6f2cee9c9d58|1|[?]|[?]|[?]|3|TREATMENT|2020-10-08|2020-12-08|26|87
e|DV|2e4cd860-734a-40b0-bde5-ca08297415a9|1|[?]|[?]|[?]|5|TREATMENT|2020-11-17|2020-11-24|2|9
e|DV|3f1854fb-d14e-4699-888b-d5042fa9327c|1|[?]|[?]|[?]|6|TREATMENT|2020-08-06|2020-09-01|12|38
e|DV|f6e37eba-e224-47f3-baa0-59dfdfb47b70|1|[?]|[?]|[?]|5|SCREENING|2020-12-29|2021-01-10|29|41
e|DV|8298b45d-16ff-42ef-8404-0f3ce628f9e5|1|[?]|[?]|[?]|7|TREATMENT|2020-08-09|2020-09-25|19|66
e|DV|ee5c6623-5cb4-4f18-99b0-6373328abc1d|1|[?]|[?]|[?]|7|FOLLOW-UP|2020-06-05|2020-07-06|4|35
e|DV|f8d6576b-b300-4c5f-8f5a-6bb35250d576|1|[?]|[?]|[?]|1|TREATMENT|2020-07-01|2020-08-06|16|52
e|DV|8635a6b3-d16e-432c-90bf-53f1494dbe5e|1|[?]|[?]|[?]|3|WASHOUT|2020-10-23|2020-11-02|7|17
e|DV|2cda4297-410a-49e4-949c-deb3dc4c6656|1|[?]|[?]|[?]|2|TREATMENT|2020-06-12|2020-06-12|2|2
e|DV|a74b51fe-34f5-4c8f-971f-d42e15f9cf41|1|[?]|[?]|[?]|5|TREATMENT|2021-03-27|2021-03-29|67|69
e|DV|9e82141b-e2b9-42c7-b813-b79bda2bd216|1|[?]|[?]|[?]|1|TREATMENT|2020-05-29|2020-05-31|8|10
e|DV|4b432c61-c620-4c5e-8aad-411facc0f4db|1|[?]|[?]|[?]|1|FOLLOW-UP|2020-09-14|2020-09-22|10|18
e|DV|1a1e6863-26da-4b5d-b82a-5703e3e9056e|1|[?]|[?]|[?]|5|FOLLOW-UP|2021-01-18|2021-01-28|33|43
e|DV|8c8053d1-adae-4d45-870e-cf4ad2475c74|1|[?]|[?]|[?]|5|TREATMENT|2020-05-23|2020-06-25|22|55
e|DV|c3b911a8-116e-4940-80a2-7128db004f4a|1|[?]|[?]|[?]|5|FOLLOW-UP|2020-11-23|2020-11-25|14|16
e|DV|401d66ba-bc00-4495-ba5d-796068dd1fd6|1|[?]|[?]|[?]|3|TREATMENT|2020-07-08|2020-08-12|37|72
e|DV|f8113725-4deb-48a1-876a-ba168a6d2cee|1|[?]|[?]|[?]|1|TREATMENT|2021-04-10|2021-04-15|88|93
e|DV|f056c174-b6da-4df6-bf95-2e31911939fb|1|[?]|[?]|[?]|6|WASHOUT|2020-12-08|2020-12-11|2|5
e|DV|b265eb9f-88e1-42d8-83a5-4bc40e46ab54|1|[?]|[?]|[?]|2|TREATMENT|2020-11-23|2020-11-25|78|80
e|DV|57b7f30f-5f2a-425d-8bf2-fd5915cac481|1|[?]|[?]|[?]|1|FOLLOW-UP|2021-01-13|2021-02-08|5|31
e|DV|02d9a74a-abc8-4b47-a4d4-a196d339f621|1|[?]|[?]|[?]|7|WASHOUT|2020-10-08|2020-11-07|34|64
e|DV|81480f83-206f-40c0-a5a4-f75b31cda363|1|[?]|[?]|[?]|6|TREATMENT|2020-11-19|2020-12-08|7|26
e|DV|2b183b69-3ed8-4356-b9e2-0988128de3f2|1|[?]|[?]|[?]|6|SCREENING|2020-10-17|2020-11-11|11|36
e|DV|6ed8a749-81c0-4998-817d-efc86cfaa091|1|[?]|[?]|[?]|6|SCREENING|2020-06-05|2020-07-02|10|37
e|DV|b0f061e5-5dc0-422d-8d96-e7b1af8bda6b|1|[?]|[?]|[?]|4|TREATMENT|2021-03-06|2021-03-27|57|78
e|DV|e6162980-e240-4924-a13a-dde28b2345cd|1|[?]|[?]|[?]|1|SCREENING|2020-08-03|2020-08-06|2|5
e|DV|3dc9c666-8be3-4cfa-88d4-b18647e08d00|1|[?]|[?]|[?]|6|FOLLOW-UP|2020-08-04|2020-09-02|62|91
e|DV|6aed5c2d-d5b1-4969-9a8a-14a79a839dbc|1|[?]|[?]|[?]|2|TREATMENT|2021-01-19|2021-03-15|6|61
e|DV|b3da6961-98dc-4f83-9cf4-dbc7f4a91c61|1|[?]|[?]|[?]|3|FOLLOW-UP|2020-11-14|2020-12-11|5|32
e|DV|2738b933-c71d-4239-a093-6b4aa7cc41df|1|[?]|[?]|[?]|1|SCREENING|2020-05-31|2020-06-27|13|40
e|DV|68b9ff4e-9694-4545-a752-4d3ac0e89fda|1|[?]|[?]|[?]|4|TREATMENT|2021-01-03|2021-02-03|5|36
e|DV|0f0ec179-5100-4a3d-9f93-54140aca7d30|1|[?]|[?]|[?]|4|TREATMENT|2020-08-26|2020-08-30|11|15
e|DV|6affe43d-e455-40af-8478-dc38019e89e1|1|[?]|[?]|[?]|1|FOLLOW-UP|2020-06-10|2020-06-16|3|9
e|DV|1c090c96-0a6c-45dd-b862-0aa3d9d579cb|1|[?]|[?]|[?]|3|TREATMENT|2020-06-05|2020-07-30|8|63
e|DV|e0258c95-7bcc-4b54-895c-f290a1364b5c|1|[?]|[?]|[?]|2|WASHOUT|2021-01-26|2021-03-20|40|93
e|DV|7218f9ae-0119-4633-a8d3-7d98b2ae1671|1|[?]|[?]|[?]|4|SCREENING|2021-03-31|2021-04-10|87|97
e|DV|f8c938ff-21c8-4d0b-9335-08d2865543ab|1|[?]|[?]|[?]|3|TREATMENT|2020-05-03|2020-05-03|2|2
e|DV|7176f852-7392-4636-800f-3aad48e93065|1|[?]|[?]|[?]|1|TREATMENT|2021-01-16|2021-04-10|10|94
e|DV|753d5d9d-ec84-46f5-a933-b18b8e3a6b0e|1|[?]|[?]|[?]|7|TREATMENT|2020-10-03|2020-10-26|5|28
e|DV|69e41d6b-57f7-48b0-be7a-29fca953f8d9|1|[?]|[?]|[?]|7|TREATMENT|2020-11-08|2021-01-19|21|93
e|DV|a38eb4fc-2422-4d4a-a435-58ae9bf42589|1|[?]|[?]|[?]|2|TREATMENT|2020-12-01|2021-01-06|18|54
e|DV|12ae2530-f9f6-4e7d-9daa-fdfaacb1c747|1|[?]|[?]|[?]|6|WASHOUT|2020-09-29|2020-10-11|13|25
e|DV|29e42c28-c2f8-4c27-9a6d-12f0d5fa4ab3|1|[?]|[?]|[?]|6|SCREENING|2021-02-12|2021-02-13|52|53
e|DV|dd518f55-0280-445d-a29f-10f09b21fd53|1|[?]|[?]|[?]|2|TREATMENT|2020-05-13|2020-05-21|5|13
e|DV|49a972da-dfad-438e-b5bc-26ee6b955a59|1|[?]|[?]|[?]|6|WASHOUT|2020-06-16|2020-06-22|2|8
e|DV|502a42a7-2ed6-46b9-9b10-728f849334b6|1|[?]|[?]|[?]|1|FOLLOW-UP|2021-01-14|2021-02-10|64|91
e|DV|61cce2a8-16d6-4cb3-91fc-71f1f2f02551|1|[?]|[?]|[?]|7|FOLLOW-UP|2020-12-13|2020-12-17|58|62
e|DV|40c048ea-d637-426b-8afe-2da3a6961528|1|[?]|[?]|[?]|6|TREATMENT|2020-08-04|2020-09-06|32|65
e|DV|4d03b209-bd53-47f5-8251-f9fb2074bc38|1|[?]|[?]|[?]|5|SCREENING|2021-01-06|2021-03-29|14|96
e|DV|35f01eda-1acb-4700-8285-c8cd4b69b524|1|[?]|[?]|[?]|1|SCREENING|2020-11-04|2020-12-04|45|75
e|DV|9df97277-7d07-4020-bae0-dfa982f21c8d|1|[?]|[?]|[?]|6|WASHOUT|2020-12-25|2021-01-01|63|70
e|DV|d1b522d5-557a-4361-a9da-292aa601fbc3|1|[?]|[?]|[?]|4|TREATMENT|2020-10-07|2020-10-12|8|13
e|DV|c6343fe8-6005-4fe8-b3e6-cfcb56c2d360|1|[?]|[?]|[?]|1|TREATMENT|2020-07-26|2020-08-17|9|31
e|DV|da2d0844-3608-4927-9103-cb7c52dd2c96|1|[?]|[?]|[?]|6|FOLLOW-UP|2021-01-25|2021-02-18|9|33
e|DV|30b6f8a7-4512-462d-a162-45c3dad853e5|1|[?]|[?]|[?]|5|TREATMENT|2020-12-02|2020-12-14|10|22
e|DV|1a3808b9-6004-4133-8f59-49905d04655e|1|[?]|[?]|[?]|7|WASHOUT|2020-11-12|2020-12-17|15|50
e|DV|5c91894d-c756-4ade-9fc4-2a64d4acc53f|1|[?]|[?]|[?]|3|TREATMENT|2021-01-12|2021-01-31|3|22
e|DV|cc9d17ea-ec8b-46bb-af7d-ad19da3cfb20|1|[?]|[?]|[?]|5|TREATMENT|2020-07-27|2020-09-05|22|62
e|DV|4a6cff44-d7c3-410f-afe0-a11ae0e8872b|1|[?]|[?]|[?]|2|WASHOUT|2020-09-20|2020-10-23|15|48
e|DV|35fd3f79-60b3-4101-ab79-952ca0e8f1ce|1|[?]|[?]|[?]|5|SCREENING|2020-06-14|2020-08-16|14|77
e|DV|37610314-f803-4ffa-a584-ebfe09267a0d|1|[?]|[?]|[?]|3|FOLLOW-UP|2020-07-01|2020-08-03|11|44
e|DV|760ec5ce-3ae7-4268-9f76-b83085ad3754|1|[?]|[?]|[?]|5|SCREENING|2020-11-07|2020-11-28|54|75
e|DV|13773a62-50b1-4b2a-a5c7-ec0e0245a97e|1|[?]|[?]|[?]|4|FOLLOW-UP|2020-06-13|2020-06-15|8|10
e|DV|d0a9940e-a75f-4fcc-8d0c-5a8dae7d9344|1|[?]|[?]|[?]|7|WASHOUT|2021-01-16|2021-01-18|2|4
e|DV|8f0ff98a-fd19-4c9f-87ec-96200ced0f82|1|[?]|[?]|[?]|5|TREATMENT|2020-11-09|2021-01-17|6|75
e|DV|d7b41e15-6725-4433-8a35-72629e342b47|1|[?]|[?]|[?]|3|TREATMENT|2020-11-11|2020-11-19|68|76
e|DV|aeddc1ed-545c-405e-b1f7-08131961f5ff|1|[?]|[?]|[?]|6|WASHOUT|2020-10-20|2020-10-30|15|25
e|DV|3effe272-6a68-4163-a4f3-bd269af6061c|1|[?]|[?]|[?]|2|TREATMENT|2021-03-14|2021-04-12|68|97
e|DV|8153c765-a92a-4b0f-9ef3-6ca925337f54|1|[?]|[?]|[?]|3|TREATMENT|2020-11-01|2020-11-05|43|47
e|DV|8d27cdcf-768e-4630-95b5-da554f6f3b56|1|[?]|[?]|[?]|7|TREATMENT|2020-11-11|2020-11-21|22|32
e|DV|5c2791ff-aaf6-413f-9827-6e97e2273388|1|[?]|[?]|[?]|6|WASHOUT|2020-09-06|2020-10-27|10|61
e|DV|b336d8c2-7bca-404e-aea3-5148d559ea99|1|[?]|[?]|[?]|2|TREATMENT|2020-09-11|2020-09-16|2|7
e|DV|702b2f8f-63b9-44c1-a46d-1a41bc837c32|1|[?]|[?]|[?]|4|FOLLOW-UP|2020-06-13|2020-06-17|6|10
e|DV|1261eee1-f073-4419-b0b7-28abd0ec1513|1|[?]|[?]|[?]|5|FOLLOW-UP|2020-11-28|2020-12-10|68|80
e|DV|46eefdf3-c314-4e61-963c-ce7f48c636e5|1|[?]|[?]|[?]|2|TREATMENT|2021-01-20|2021-02-18|32|61
e|DV|f632159b-8c91-4f0d-81cb-e5b9195588c9|1|[?]|[?]|[?]|7|WASHOUT|2021-02-12|2021-03-20|41|77
e|DV|898a9d2f-338b-41bf-8ac0-c4a025481349|1|[?]|[?]|[?]|6|TREATMENT|2020-05-20|2020-05-23|6|9
e|DV|db3824aa-375d-4e40-a14b-af0e4460914e|1|[?]|[?]|[?]|7|TREATMENT|2020-05-17|2020-06-01|7|22
e|DV|0ea6be64-32f8-4e10-b993-687ea200e4e9|1|[?]|[?]|[?]|3|TREATMENT|2021-01-20|2021-03-11|2|52
e|DV|18504c4e-41c8-4c1a-a479-d179ccd318e3|1|[?]|[?]|[?]|3|TREATMENT|2020-06-17|2020-07-22|5|40
e|DV|7f211d8a-7478-4082-8d95-4ace9ceee919|1|[?]|[?]|[?]|2|TREATMENT|2020-08-12|2020-08-25|3|16
e|DV|0739e140-bcac-4df9-9629-bd0748d1fdd6|1|[?]|[?]|[?]|4|TREATMENT|2020-10-22|2020-11-05|23|37
e|DV|4d44daf5-8ebc-4d4f-aa33-e8ab9f5442e0|1|[?]|[?]|[?]|1|TREATMENT|2021-01-19|2021-01-20|39|40
e|DV|f24b931a-2cdd-4432-a1dd-69c7286f4690|1|[?]|[?]|[?]|3|TREATMENT|2020-05-15|2020-05-27|10|22
e|DV|d394120d-7630-4fcf-a336-482599d88296|1|[?]|[?]|[?]|4|TREATMENT|2021-01-28|2021-02-04|16|23
e|DV|bcda1d95-58ed-4991-9395-0b98efc1d9a1|1|[?]|[?]|[?]|3|TREATMENT|2020-10-22|2020-11-19|11|39
e|DV|6999bd5c-0790-42b8-a4ff-e538776b0fb0|1|[?]|[?]|[?]|4|SCREENING|2020-09-19|2020-10-01|45|57
e|DV|5934d59a-b0f4-4377-a3c3-00d434d3ddfd|1|[?]|[?]|[?]|2|SCREENING|2020-12-29|2021-02-14|18|65
e|DV|59b0fee3-2294-448e-9837-38bd6b5c794b|1|[?]|[?]|[?]|5|FOLLOW-UP|2021-02-22|2021-03-01|62|69
e|DV|d9bdb1e3-4630-423f-be01-4873bce30422|1|[?]|[?]|[?]|1|SCREENING|2020-12-16|2021-02-01|4|51
e|DV|7a2e5851-3c3e-46b4-876f-7dd6c8005f9a|1|[?]|[?]|[?]|5|TREATMENT|2020-07-11|2020-07-13|26|28
e|DV|5546d86b-6a12-4b5f-b66f-8d85ba4691e6|1|[?]|[?]|[?]|4|WASHOUT|2020-08-02|2020-10-30|8|97
e|DV|933c3a61-59a0-4cfb-ae17-45bc48229323|1|[?]|[?]|[?]|6|FOLLOW-UP|2020-09-18|2020-09-19|19|20
e|DV|58d871e3-ef99-48da-ab12-fdfdc2e01da6|1|[?]|[?]|[?]|2|FOLLOW-UP|2020-10-24|2020-12-10|8|55
e|DV|ac66129e-3244-4cd8-a235-43b4bfb7dace|1|[?]|[?]|[?]|5|TREATMENT|2020-10-23|2020-12-01|4|43
e|DV|2f2297c4-ed0a-45c2-bbd9-13c945abb67b|1|[?]|[?]|[?]|2|SCREENING|2020-09-04|2020-10-14|12|52
e|DV|3d59a754-10bb-4847-93ea-433b43265a2f|1|[?]|[?]|[?]|1|TREATMENT|2020-10-19|2020-11-30|5|47
e|DV|0d3d37a5-2215-4b28-b6f7-7256abcdd97e|1|[?]|[?]|[?]|5|WASHOUT|2021-01-12|2021-01-12|2|2
e|DV|89209495-c485-4eb7-b858-8dc5490d2b64|1|[?]|[?]|[?]|1|WASHOUT|2020-09-06|2020-09-30|9|33
e|DV|d80522bb-f146-4270-a6e1-326fde50d9ca|1|[?]|[?]|[?]|5|SCREENING|2021-01-21|2021-01-30|31|40
e|DV|3982a462-95f6-4e71-93e5-9df777770067|1|[?]|[?]|[?]|4|TREATMENT|2021-01-08|2021-01-10|24|26
e|DV|f3a3a6ca-2344-4cee-a6a5-59beee9304df|1|[?]|[?]|[?]|5|FOLLOW-UP|2020-11-06|2020-12-15|7|46
e|DV|175cfd82-a6fe-463b-81e5-07ae9e1253db|1|[?]|[?]|[?]|3|FOLLOW-UP|2020-06-16|2020-07-10|31|55
e|DV|e19b469c-40d5-4506-8233-a86bebde880d|1|[?]|[?]|[?]|5|FOLLOW-UP|2021-02-16|2021-04-07|35|85
e|DV|f280a4a5-9826-4d77-adf1-992284cb3314|1|[?]|[?]|[?]|6|SCREENING|2020-12-24|2021-02-15|15|68
e|DV|82840929-7800-4254-b60a-8af4786664f6|1|[?]|[?]|[?]|5|WASHOUT|2020-07-15|2020-07-29|51|65
e|DV|dae25bdb-38fd-4852-9a9a-7627368e9497|1|[?]|[?]|[?]|2|TREATMENT|2020-09-10|2020-10-10|18|48
e|DV|9e009737-cd77-4b96-a4af-e9731ef7e9d0|1|[?]|[?]|[?]|4|TREATMENT|2020-10-13|2020-12-28|18|94
e|DV|e7468d01-71b3-47c4-9715-62fe143364cb|1|[?]|[?]|[?]|7|TREATMENT|2020-11-03|2020-12-27|29|83
e|DV|6a021859-1b18-4eb5-9548-0e32c0c1edf7|1|[?]|[?]|[?]|1|TREATMENT|2020-05-15|2020-05-31|7|23
e|DV|eb409ec5-4c02-41c8-a11f-03d990818c2a|1|[?]|[?]|[?]|1|TREATMENT|2021-01-21|2021-02-11|53|74
e|DV|2178f542-809d-4306-84e4-26d3b3b370b0|1|[?]|[?]|[?]|6|TREATMENT|2020-11-06|2020-12-25|10|59
e|DV|da7423fb-461e-43a6-bcb9-aa87051bda0a|1|[?]|[?]|[?]|4|TREATMENT|2020-10-27|2020-11-01|33|38
e|DV|40e4c69f-6115-4f0e-8555-45b12b222801|1|[?]|[?]|[?]|4|FOLLOW-UP|2021-01-30|2021-02-11|10|22
e|DV|1307d7f6-acb6-4096-a907-08345548a82b|1|[?]|[?]|[?]|2|WASHOUT|2020-06-26|2020-07-10|39|53
e|DV|bac23835-1120-43b2-9d99-694bef97f44b|1|[?]|[?]|[?]|2|TREATMENT|2020-06-09|2020-08-15|29|96
e|DV|8cf8f8a1-5c55-4f82-b6bc-109acdf5b514|1|[?]|[?]|[?]|7|TREATMENT|2020-09-16|2020-09-17|2|3
e|DV|14cd64f5-f3c8-47a4-b40e-9c5090890870|1|[?]|[?]|[?]|3|TREATMENT|2020-10-06|2020-11-24|22|71
e|DV|ca4a06be-5e6a-4220-9854-e5fe02b384af|1|[?]|[?]|[?]|7|SCREENING|2020-10-17|2020-11-08|24|46
e|DV|55504c69-a659-402b-a0cb-95ab4e08c086|1|[?]|[?]|[?]|1|TREATMENT|2021-01-09|2021-01-10|5|6
e|DV|bffa468a-a27b-4e87-a60d-b5787a03c6f6|1|[?]|[?]|[?]|6|WASHOUT|2020-12-21|2020-12-24|31|34
e|DV|2e25aa76-914f-41e3-82ce-7c56ba2f6271|1|[?]|[?]|[?]|1|TREATMENT|2020-12-07|2020-12-09|6|8
e|DV|12c24fff-080b-4889-a455-ff55d5c0536c|1|[?]|[?]|[?]|3|SCREENING|2021-04-09|2021-04-11|82|84
e|DV|aecfe062-4e0d-4c91-8b67-1f304c5765ae|1|[?]|[?]|[?]|2|TREATMENT|2021-03-02|2021-04-03|50|82
e|DV|05a142dc-a779-44cb-ab2e-f961676a3940|1|[?]|[?]|[?]|5|TREATMENT|2020-12-05|2020-12-12|27|34
e|DV|498524c5-08c4-41a4-af81-876ab2452f64|1|[?]|[?]|[?]|7|SCREENING|2020-12-22|2021-02-11|23|74
e|DV|93490930-01cd-470e-81a3-bcd7a140ccc1|1|[?]|[?]|[?]|4|TREATMENT|2020-11-12|2021-01-06|5|60
e|DV|fd588c97-c57f-432f-81a0-a116a017c5dd|1|[?]|[?]|[?]|1|WASHOUT|2020-06-01|2020-06-02|8|9
e|DV|18028efc-33b9-4741-a47a-8fdac0a90e6e|1|[?]|[?]|[?]|4|TREATMENT|2021-02-08|2021-03-01|58|79
e|DV|ec47a40e-dd7f-47ee-b571-d91ce72c1cf1|1|[?]|[?]|[?]|4|TREATMENT|2020-06-02|2020-06-17|8|23
e|DV|08fccce4-64bf-431e-81b0-a96566e77df6|1|[?]|[?]|[?]|1|SCREENING|2021-01-31|2021-02-28|21|49
e|DV|0354fab5-5636-4504-8345-af060ad4c90c|1|[?]|[?]|[?]|4|TREATMENT|2021-01-27|2021-01-29|14|16
e|DV|f4f1a53a-d621-4f75-b44e-96b959aed03d|1|[?]|[?]|[?]|5|TREATMENT|2021-01-06|2021-02-13|7|45
e|DV|ed392c1a-0167-4ee9-b208-8b0c8d314bb4|1|[?]|[?]|[?]|2|TREATMENT|2020-11-23|2020-12-28|63|98
e|DV|679423a4-92cf-4a93-8277-282f9b43f2ed|1|[?]|[?]|[?]|3|FOLLOW-UP|2020-07-28|2020-09-03|4|41
e|DV|fb686cda-337b-46aa-b67b-790414201d9a|1|[?]|[?]|[?]|1|WASHOUT|2020-06-16|2020-06-29|31|44
e|DV|98d3c31c-8b79-4d8a-a39e-21b0a3fa653b|1|[?]|[?]|[?]|5|TREATMENT|2020-10-24|2020-10-28|29|33
e|DV|92d7a180-9353-41f8-93e2-ebcee32a1c63|1|[?]|[?]|[?]|1|WASHOUT|2020-12-11|2020-12-12|15|16
e|DV|5da18fbc-1274-4cb3-bb6b-b57872b9815b|1|[?]|[?]|[?]|5|SCREENING|2020-12-10|2020-12-29|64|83
e|DV|aca1ac29-8b75-4362-a3fd-f42d77f9ffc0|1|[?]|[?]|[?]|3|TREATMENT|2020-12-26|2021-02-14|45|95
e|DV|4a195822-d646-4b22-a3b9-f6642442474d|1|[?]|[?]|[?]|4|SCREENING|2020-07-17|2020-07-17|2|2
e|DV|515808c1-fda7-43bb-91dc-28e2d4e308cd|1|[?]|[?]|[?]|1|TREATMENT|2020-09-14|2020-10-05|17|38
e|DV|18461665-388d-403b-90e4-2b42fcb4a01a|1|[?]|[?]|[?]|6|SCREENING|2020-11-10|2020-12-10|48|78
e|DV|c3d2c2f3-6f3e-4671-b17b-47e6809bcca0|1|[?]|[?]|[?]|5|TREATMENT|2020-08-06|2020-09-25|2|52
e|DV|e3ce1661-1b72-4835-88d1-5a6d3655b674|1|[?]|[?]|[?]|5|FOLLOW-UP|2020-08-15|2020-09-03|13|32
e|DV|240844e9-3dda-438e-81b2-8f6aa4e0427e|1|[?]|[?]|[?]|4|FOLLOW-UP|2020-12-22|2021-02-19|23|82
e|DV|fccf5c5d-deb6-4f13-a485-afcda3556578|1|[?]|[?]|[?]|1|SCREENING|2020-08-08|2020-08-30|14|36
e|DV|94620ed0-1ae8-4fa5-a629-9210860b0be9|1|[?]|[?]|[?]|1|SCREENING|2020-08-06|2020-08-15|12|21
e|DV|9c3b6912-19be-435c-87fc-781a08efb847|1|[?]|[?]|[?]|6|TREATMENT|2021-01-29|2021-03-02|17|49
e|DV|171a6d85-ba2e-45da-b31b-01651b26e890|1|[?]|[?]|[?]|5|TREATMENT|2020-10-09|2020-10-17|78|86
e|DV|a8338164-1bb5-4474-9432-4d5a81ab30d8|1|[?]|[?]|[?]|6|SCREENING|2021-01-05|2021-02-01|36|63
e|DV|6d64077e-1f18-4bd6-ba86-53d90121f7a9|1|[?]|[?]|[?]|5|TREATMENT|2020-06-19|2020-06-24|12|17
e|DV|91d08486-3db7-4c71-a63f-fd060f4ae1a4|1|[?]|[?]|[?]|6|FOLLOW-UP|2021-02-02|2021-02-28|49|75
e|DV|f44ad5ae-71d0-462e-8d57-b5f8fffaf2da|1|[?]|[?]|[?]|4|FOLLOW-UP|2020-10-15|2020-10-16|72|73
e|DV|7b8a488a-ffd8-45bd-9b6d-8c16b1f24997|1|[?]|[?]|[?]|3|FOLLOW-UP|2021-02-08|2021-02-12|40|44
e|DV|87998e13-813a-464d-935c-d5513cd0db5e|1|[?]|[?]|[?]|3|TREATMENT|2020-11-03|2020-11-06|74|77
e|DV|7812e96e-ea53-4eb0-8160-d4118c567c9d|1|[?]|[?]|[?]|3|TREATMENT|2021-01-23|2021-03-03|6|45
e|DV|f9c6c448-0e3d-421f-a63f-be4aeb965256|1|[?]|[?]|[?]|2|WASHOUT|2020-11-19|2020-12-09|21|41
e|DV|e8da815a-b53c-46f4-a546-e8553152719f|1|[?]|[?]|[?]|3|TREATMENT|2020-12-31|2021-01-31|14|45
e|DV|701d794b-07b4-4394-a2a4-d31a9f5b743a|1|[?]|[?]|[?]|6|WASHOUT|2021-01-21|2021-01-22|2|3
e|DV|45a9c2a7-3f0e-4bed-ac5b-e9ef5ba4fffd|1|[?]|[?]|[?]|7|TREATMENT|2020-12-20|2021-01-20|5|36
e|DV|060a73b7-19d8-4a73-9976-6bbc8a83a6d5|1|[?]|[?]|[?]|6|WASHOUT|2020-08-21|2020-09-28|21|59
e|DV|fe8b11f0-70b9-4c5e-8075-6cdb4dd95c5a|1|[?]|[?]|[?]|5|TREATMENT|2021-01-14|2021-02-13|22|52
e|DV|bb2487c3-cc05-48f8-9031-0e433c07e3d6|1|[?]|[?]|[?]|6|TREATMENT|2020-12-02|2020-12-20|13|31
e|DV|2661da18-b539-49d8-ac80-9da03c127d21|1|[?]|[?]|[?]|4|WASHOUT|2020-08-01|2020-08-11|16|26
e|DV|f1835786-c567-4235-9bd1-f7ffcec12741|1|[?]|[?]|[?]|7|TREATMENT|2020-08-15|2020-10-16|19|81
e|DV|019eb415-1da3-40fa-b4ba-b1f381ec3cac|1|[?]|[?]|[?]|1|TREATMENT|2020-07-30|2020-08-10|30|41
e|DV|2506c6e2-018f-4300-b3b5-44ff8d6e13df|1|[?]|[?]|[?]|5|SCREENING|2020-08-02|2020-09-05|20|54
e|DV|65c439f8-9658-4ac5-9eae-0837182a90fd|1|[?]|[?]|[?]|7|TREATMENT|2020-05-28|2020-07-14|3|50
e|DV|5b73ad4c-bb28-47d1-a2f6-8508444059a5|1|[?]|[?]|[?]|1|TREATMENT|2020-06-10|2020-06-16|8|14
e|DV|16dcaefa-701c-4863-b010-8ac640aeb55a|1|[?]|[?]|[?]|6|WASHOUT|2020-07-22|2020-07-26|45|49
e|DV|4c19e870-9195-41d8-9c8a-8a54bb428732|1|[?]|[?]|[?]|7|FOLLOW-UP|2020-08-09|2020-09-01|16|39
e|DV|7682184f-0801-4315-9c5f-116f7321a2b0|1|[?]|[?]|[?]|6|TREATMENT|2021-01-20|2021-01-22|39|41
e|DV|c40f9cb3-b597-4614-8ba5-d40849030ff9|1|[?]|[?]|[?]|4|WASHOUT|2020-12-04|2020-12-05|2|3
e|DV|5e850a5f-cfce-4bdd-a8f2-22996b8a6a64|1|[?]|[?]|[?]|3|TREATMENT|2020-09-18|2020-10-15|19|46
e|DV|c9308aa7-f38f-4b54-a919-d3f893b18cd1|1|[?]|[?]|[?]|6|TREATMENT|2020-11-12|2020-12-22|15|55
e|DV|e7cfb803-a0be-4020-9982-e0c3cdd90cd1|1|[?]|[?]|[?]|6|TREATMENT|2020-08-15|2020-08-20|3|8
e|DV|3da865e8-9680-4112-b6d3-1f5763cfdaae|1|[?]|[?]|[?]|2|FOLLOW-UP|2021-01-25|2021-02-09|15|30
e|DV|60afc3a3-56b7-4988-9006-e12f3bc1097c|1|[?]|[?]|[?]|6|TREATMENT|2020-09-02|2020-09-13|27|38
e|DV|440119fb-ad46-4348-b236-8e2979c7bf2e|1|[?]|[?]|[?]|3|TREATMENT|2020-12-09|2020-12-10|3|4
e|DV|af45a9de-c8aa-4602-8e3b-d16998740ebd|1|[?]|[?]|[?]|3|TREATMENT|2020-07-12|2020-07-16|37|41
e|DV|23306866-3fcb-418d-861b-de3bd779260d|1|[?]|[?]|[?]|7|TREATMENT|2020-07-17|2020-07-22|2|7
e|DV|144d2eb9-d79a-4a61-91f5-6a807832d8ca|1|[?]|[?]|[?]|7|FOLLOW-UP|2020-07-27|2020-08-12|2|18
e|DV|92855d33-eee6-449f-a9e6-c06a1532571f|1|[?]|[?]|[?]|2|WASHOUT|2020-12-18|2021-02-21|29|94
e|DV|0204e2fc-bc80-44cd-a749-90c1bf21a2bb|1|[?]|[?]|[?]|7|FOLLOW-UP|2021-02-08|2021-02-16|20|28
e|DV|40cb9bc3-abec-4158-bdee-becdeceba727|1|[?]|[?]|[?]|7|TREATMENT|2020-10-18|2020-12-29|9|81
e|DV|f4dbdcd5-52ca-498c-b72a-1c0209c9a286|1|[?]|[?]|[?]|3|TREATMENT|2020-10-13|2020-12-07|6|61
e|DV|616b284a-3fed-4009-bafe-7da10acd537e|1|[?]|[?]|[?]|3|TREATMENT|2020-10-10|2020-11-04|47|72
e|DV|d39b53da-187f-4da6-9614-2bd301e9ad05|1|[?]|[?]|[?]|6|TREATMENT|2020-10-19|2020-11-05|27|44
e|DV|c2a43fc4-83c4-4522-b3b2-d4cb1a92a4b7|1|[?]|[?]|[?]|4|WASHOUT|2020-11-27|2020-12-10|3|16
e|DV|e51cf168-af89-44d9-9e56-14785071f6b0|1|[?]|[?]|[?]|5|WASHOUT|2020-11-21|2020-11-24|4|7
e|DV|8416f8c6-d0e4-43fc-9a66-6a916e853e87|1|[?]|[?]|[?]|5|TREATMENT|2020-06-16|2020-06-24|13|21
e|DV|a110e924-90a1-4e84-b47a-410f800fa201|1|[?]|[?]|[?]|7|TREATMENT|2021-01-10|2021-01-14|83|87
e|DV|40681cb8-5d49-4e1d-b893-f5fad62a0885|1|[?]|[?]|[?]|6|TREATMENT|2020-08-03|2020-08-08|5|10
e|DV|7a7dd1e0-46b7-4a46-bbde-601c5ee3ceeb|1|[?]|[?]|[?]|4|SCREENING|2020-12-13|2021-03-06|6|89
e|DV|96e65c5c-723c-42d9-8e88-0bcb600e9f88|1|[?]|[?]|[?]|6|WASHOUT|2020-09-14|2020-10-26|14|56
e|DV|eaf1edbe-1848-4614-b7b1-dcbcba5f0a15|1|[?]|[?]|[?]|2|TREATMENT|2020-09-23|2020-09-29|83|89
e|DV|f81742a2-5250-43d7-a6e2-8fcb1625a114|1|[?]|[?]|[?]|1|TREATMENT|2020-07-21|2020-08-19|62|91
e|DV|c6bad1d0-3514-4f98-b229-d093a94dfbc4|1|[?]|[?]|[?]|4|TREATMENT|2020-07-07|2020-08-22|23|69
e|DV|84d68bcc-dc7a-4366-9630-40ce8885351d|1|[?]|[?]|[?]|4|TREATMENT|2020-07-13|2020-09-05|37|91
e|DV|517f3930-5202-4e0a-b3e1-85ed4bd7e117|1|[?]|[?]|[?]|7|TREATMENT|2021-01-05|2021-03-03|7|64
e|DV|edd73650-27bb-474f-bab7-d2c3d57b2dc4|1|[?]|[?]|[?]|7|SCREENING|2020-12-26|2021-01-07|15|27
e|DV|98737dfa-0058-4420-a515-38526f01f90d|1|[?]|[?]|[?]|4|TREATMENT|2020-11-05|2020-12-04|67|96
e|DV|e713c631-cdd8-428f-a3a6-0195f6fb80b4|1|[?]|[?]|[?]|6|SCREENING|2020-10-05|2020-10-08|12|15
e|DV|a3964bed-1273-4bce-bbb4-b8d768b30aa3|1|[?]|[?]|[?]|2|TREATMENT|2020-09-18|2020-09-22|8|12
e|DV|b77116ca-2b32-411f-a0ff-fa70d74eb4bd|1|[?]|[?]|[?]|7|SCREENING|2020-12-23|2021-02-04|12|55
e|DV|cedc258a-b0e3-4590-afe1-9ed2b6ba28bc|1|[?]|[?]|[?]|6|WASHOUT|2020-08-08|2020-08-26|70|88
e|DV|597ff319-c16e-4aae-a7d9-ed2bc25684dc|1|[?]|[?]|[?]|1|TREATMENT|2020-06-06|2020-07-06|19|49
e|DV|7d845e3e-8bd1-4647-a3e8-352a52b585cb|1|[?]|[?]|[?]|3|WASHOUT|2020-12-11|2020-12-15|43|47
e|DV|7e9f4283-f90b-4f74-939c-b42648e8373c|1|[?]|[?]|[?]|6|TREATMENT|2021-01-04|2021-02-03|30|60
e|DV|20a637e6-83d2-4a86-9ecc-8ddb0523997f|1|[?]|[?]|[?]|5|WASHOUT|2020-12-10|2020-12-25|50|65
e|DV|29b5d32c-0c0e-42b2-8dfd-ff92a7a6229e|1|[?]|[?]|[?]|6|TREATMENT|2020-05-21|2020-06-17|15|42
e|DV|595aa95c-4378-47c1-96e9-5512d08fb653|1|[?]|[?]|[?]|2|TREATMENT|2020-11-03|2020-11-14|82|93
e|DV|b528dc24-e791-41b1-95b3-fc0be18da47f|1|[?]|[?]|[?]|2|SCREENING|2020-12-24|2020-12-30|7|13
e|DV|7a43c892-0e7f-4f33-9130-e175e475531f|1|[?]|[?]|[?]|5|SCREENING|2020-05-31|2020-07-24|24|78
e|DV|8cce3de1-e56d-4c2c-9b45-cdf1f226dc5e|1|[?]|[?]|[?]|6|WASHOUT|2020-12-08|2020-12-20|8|20
e|DV|bde9096e-9ab9-45fe-8e96-1ec9762824a0|1|[?]|[?]|[?]|7|TREATMENT|2020-08-27|2020-09-01|10|15
e|DV|ea7907aa-811e-48ec-9fc6-ab8affde8913|1|[?]|[?]|[?]|3|WASHOUT|2020-06-29|2020-07-29|11|41
e|DV|3aa9935c-943d-406a-bb6e-fc067fa8a487|1|[?]|[?]|[?]|7|TREATMENT|2020-10-28|2020-11-10|72|85
e|DV|0cac2007-ca12-45ba-9b1c-70f753232f05|1|[?]|[?]|[?]|6|TREATMENT|2020-12-23|2021-01-21|32|61
e|DV|2339e91a-b93e-426f-9b60-3d3b6969268d|1|[?]|[?]|[?]|2|TREATMENT|2020-07-23|2020-09-21|26|86
e|DV|0d09e35b-e864-4492-a341-21c71d92b551|1|[?]|[?]|[?]|5|FOLLOW-UP|2020-11-14|2020-12-16|25|57
e|DV|0f8b5d32-6c34-4ea3-bab7-816c1d755ffd|1|[?]|[?]|[?]|5|SCREENING|2020-06-03|2020-06-06|8|11
e|DV|0a5b1036-cd00-4221-b218-ee2664e5a43e|1|[?]|[?]|[?]|1|TREATMENT|2020-12-31|2021-01-04|8|12
e|DV|a4f74465-7abc-4cc2-a0be-25d1c802af8c|1|[?]|[?]|[?]|3|SCREENING|2020-10-31|2020-11-01|41|42
e|DV|2d38f416-c40c-41a1-a4be-bcbfa4a97ad9|1|[?]|[?]|[?]|7|TREATMENT|2020-11-23|2020-12-31|21|59
e|DV|e7262592-01e8-4cb3-b967-ec1037505e81|1|[?]|[?]|[?]|5|TREATMENT|2020-10-11|2020-11-03|39|62
e|DV|bf150829-1b25-418a-9bc6-61716984387c|1|[?]|[?]|[?]|5|SCREENING|2020-07-30|2020-09-04|55|91
e|DV|5c1cc260-97a0-493c-bc11-57f31ffd7455|1|[?]|[?]|[?]|6|WASHOUT|2020-08-29|2020-09-02|2|6
e|DV|cca2835b-ca8d-4db6-89b4-9f2855968a8a|1|[?]|[?]|[?]|1|WASHOUT|2020-07-18|2020-07-29|9|20
e|DV|420e3ac1-ba3f-4baf-bcfb-121c0fdc947e|1|[?]|[?]|[?]|6|WASHOUT|2020-10-10|2020-10-15|13|18
e|DV|74cd0a4f-f9fe-4df9-93b8-7832512d0828|1|[?]|[?]|[?]|3|TREATMENT|2020-05-28|2020-06-11|23|37
e|DV|09238251-feaf-45a9-b295-dfed9a75fbb2|1|[?]|[?]|[?]|7|TREATMENT|2020-07-03|2020-07-04|17|18
e|DV|3e896568-85dc-4a14-ba41-eb3575940a9d|1|[?]|[?]|[?]|1|TREATMENT|2021-04-06|2021-04-15|80|89
e|DV|7e759204-4cf5-49fb-9d9e-82e0199c7ccc|1|[?]|[?]|[?]|7|FOLLOW-UP|2020-10-28|2020-12-12|16|61
e|DV|725c5a91-72b0-4b2c-a51a-d1006303373e|1|[?]|[?]|[?]|2|FOLLOW-UP|2020-11-28|2020-12-27|15|44
e|DV|5bf5b31d-a59d-46b7-8f8f-97919d449565|1|[?]|[?]|[?]|5|SCREENING|2021-02-13|2021-02-16|53|56
e|DV|7fc35880-1672-4e64-ba3b-aa3f1e42764b|1|[?]|[?]|[?]|6|TREATMENT|2020-06-17|2020-06-27|32|42
e|DV|f093c85b-c6bc-414d-a6e3-a8dcb33226ff|1|[?]|[?]|[?]|4|FOLLOW-UP|2020-10-07|2020-10-29|3|25
e|DV|f8878ffd-67af-414c-b346-596dbec640cf|1|[?]|[?]|[?]|6|SCREENING|2021-01-16|2021-03-14|22|79
e|DV|d8212248-cd8c-4404-8ad8-2c89c05bee9e|1|[?]|[?]|[?]|3|TREATMENT|2020-05-18|2020-05-28|17|27
e|DV|ea9c56ad-d69c-47c2-b486-65ce91e1f60d|1|[?]|[?]|[?]|7|TREATMENT|2020-07-21|2020-08-05|29|44
e|DV|b832144e-88c4-4ad6-b173-abac7802a36c|1|[?]|[?]|[?]|2|TREATMENT|2021-02-09|2021-04-13|36|99
e|DV|6acacd87-c487-401c-8888-76ccf97b640d|1|[?]|[?]|[?]|5|WASHOUT|2020-07-04|2020-07-16|50|62
e|DV|3e9b342f-56c3-45cb-9b9f-5b6e5f555bdf|1|[?]|[?]|[?]|6|TREATMENT|2020-08-21|2020-10-13|46|99
e|DV|73988e01-56c0-4b31-84e2-c23ce0bac5ac|1|[?]|[?]|[?]|2|SCREENING|2021-02-25|2021-03-30|63|96
e|DV|0670f6a3-18c9-4027-91c1-56f5555589a8|1|[?]|[?]|[?]|6|SCREENING|2020-05-07|2020-06-25|4|53
e|DV|59179734-8784-4a88-aa6b-51b6082ffc1b|1|[?]|[?]|[?]|2|TREATMENT|2020-09-28|2020-11-05|58|96
e|DV|ef21c401-3b32-478b-9a7d-e25ccc3e3c60|1|[?]|[?]|[?]|6|SCREENING|2020-08-14|2020-08-16|2|4
e|DV|01c642f8-48ef-4375-aa2b-d0940b74e580|1|[?]|[?]|[?]|4|TREATMENT|2020-09-11|2020-09-20|2|11
e|DV|c0e7028c-6f5c-410a-afde-e56af2177983|1|[?]|[?]|[?]|6|TREATMENT|2020-06-29|2020-09-24|3|90
e|DV|eba928ed-9434-4e75-b49d-169298f966e1|1|[?]|[?]|[?]|1|WASHOUT|2020-08-26|2020-09-02|24|31
e|DV|4772aa80-2097-4867-a549-b6f9b140f141|1|[?]|[?]|[?]|6|TREATMENT|2020-07-10|2020-09-24|8|84
e|DV|74acb1a5-6dab-4b9e-ac7b-d242bdd44d26|1|[?]|[?]|[?]|3|WASHOUT|2020-06-04|2020-06-07|7|10
e|DV|4d8dd0d0-407d-4374-8345-c11f30603273|1|[?]|[?]|[?]|4|WASHOUT|2021-01-26|2021-01-31|35|40
e|DV|6996077b-556a-47b9-bbff-20c1b4df35ea|1|[?]|[?]|[?]|2|TREATMENT|2020-06-18|2020-06-26|20|28
e|DV|d79d31c5-d51a-46a7-b22c-20d6d483f46e|1|[?]|[?]|[?]|5|SCREENING|2020-11-12|2020-12-14|30|62
e|DV|738d539e-a810-4207-8904-fc6a5d055424|1|[?]|[?]|[?]|2|FOLLOW-UP|2021-01-16|2021-02-21|18|54
e|DV|95e3cff6-3c61-4e31-97ff-cfcbe1cab4f7|1|[?]|[?]|[?]|3|SCREENING|2020-08-06|2020-08-10|5|9
e|DV|20841d37-0444-4d1d-b934-1e805cdacdaf|1|[?]|[?]|[?]|2|TREATMENT|2020-11-27|2020-12-30|15|48
e|DV|a96323a5-4d4f-4ea4-b3da-89b8cca46ee0|1|[?]|[?]|[?]|7|FOLLOW-UP|2020-11-01|2020-12-05|10|44
e|DV|d74682f1-824e-449d-bdf1-db517d8fdf2e|1|[?]|[?]|[?]|3|SCREENING|2020-09-23|2020-10-30|56|93
e|DV|a3c226dc-d8f4-4fbc-b840-f1dc1b2680dd|1|[?]|[?]|[?]|2|TREATMENT|2021-01-11|2021-02-19|45|84
e|DV|33cc0c60-b4f3-4b6c-9c7f-a4b0f536b0ac|1|[?]|[?]|[?]|5|TREATMENT|2020-08-12|2020-09-01|51|71
e|DV|94c7f1e8-9703-4376-9cb2-6a1344dbf8cd|1|[?]|[?]|[?]|3|FOLLOW-UP|2020-12-04|2020-12-07|27|30
e|DV|20abe0d2-bbe5-422b-b9a7-ae645928b0bf|1|[?]|[?]|[?]|4|TREATMENT|2020-11-17|2020-11-30|31|44
e|DV|b5644705-65e9-4d9b-9f5c-f8f62d26e257|1|[?]|[?]|[?]|4|FOLLOW-UP|2021-01-01|2021-01-26|18|43
e|DV|ec82f59b-197a-4ccc-b5e5-d91627a86a27|1|[?]|[?]|[?]|5|TREATMENT|2020-05-14|2020-05-27|8|21
e|DV|527fd604-110f-47b1-bd8b-b1de2f5b0d29|1|[?]|[?]|[?]|5|TREATMENT|2020-12-10|2020-12-14|21|25
e|DV|1e1de453-920a-4132-b2f7-6335ee81ec83|1|[?]|[?]|[?]|3|TREATMENT|2020-10-28|2020-12-02|16|51
e|DV|e553ad8e-96f4-4cb0-a005-51e9b64513b7|1|[?]|[?]|[?]|7|FOLLOW-UP|2020-06-27|2020-07-02|8|13
e|DV|9bd9a8ad-dafd-46e0-a51c-c086ca4e9c0c|1|[?]|[?]|[?]|1|TREATMENT|2021-01-08|2021-01-26|33|51
e|DV|c041c7ce-8c14-49cd-a2b2-e7e18b5bc579|1|[?]|[?]|[?]|2|WASHOUT|2020-06-02|2020-06-05|3|6
e|DV|2c9752be-9479-4c18-bb2c-19ffa8dfec3a|1|[?]|[?]|[?]|6|TREATMENT|2020-10-21|2020-11-30|2|42
e|DV|083f3f2b-c66c-4a98-95c6-fc2bbceecf7e|1|[?]|[?]|[?]|5|TREATMENT|2021-01-01|2021-01-19|18|36
e|DV|ad04ec90-9fd5-49f2-ae23-264273eb0a24|1|[?]|[?]|[?]|1|FOLLOW-UP|2020-11-02|2020-11-29|26|53
e|DV|a1d203ef-7ee1-4373-988a-370532bae2b1|1|[?]|[?]|[?]|7|TREATMENT|2021-03-09|2021-04-18|50|90
e|DV|4389d158-cb51-4779-b19a-f38dbef0806a|1|[?]|[?]|[?]|4|TREATMENT|2020-06-21|2020-07-24|9|42
e|DV|3a973b7a-3583-4383-b59e-3dab51b511bd|1|[?]|[?]|[?]|7|TREATMENT|2021-02-02|2021-03-04|24|54
e|DV|d283591c-2085-459e-94f2-d3eb6b81aea7|1|[?]|[?]|[?]|7|SCREENING|2020-10-19|2020-11-11|31|54
e|DV|da31f695-9f6a-46b2-8002-5c1c21b55cf3|1|[?]|[?]|[?]|3|TREATMENT|2020-10-09|2020-11-15|18|55
e|DV|4cd63e56-3d93-403a-8011-3b4fcf26e445|1|[?]|[?]|[?]|1|TREATMENT|2021-01-04|2021-01-15|18|29
e|DV|379e3838-eef8-45a4-bd0b-5b8b3ec3e204|1|[?]|[?]|[?]|1|WASHOUT|2020-05-18|2020-05-20|5|7
e|DV|f31bab3b-3624-44a5-a62f-f8cf9055eec4|1|[?]|[?]|[?]|6|WASHOUT|2020-08-15|2020-09-11|16|43
e|DV|0b5675aa-4ec0-4548-9a0b-a13f8de89883|1|[?]|[?]|[?]|3|FOLLOW-UP|2020-07-02|2020-07-16|14|28
e|DV|9bdf9856-3b2a-43db-b369-3e13868ef413|1|[?]|[?]|[?]|6|SCREENING|2021-01-21|2021-03-13|8|59
e|DV|5cc53922-60c0-4bce-8d4a-bc59e9203d63|1|[?]|[?]|[?]|7|TREATMENT|2020-12-21|2020-12-24|3|6
e|DV|ae4761e8-2ede-43b6-8ec4-40c97add3cfa|1|[?]|[?]|[?]|6|TREATMENT|2020-12-21|2021-01-17|2|29
e|DV|066281d3-27b8-439f-8340-f59115f646ef|1|[?]|[?]|[?]|3|TREATMENT|2020-10-16|2020-11-28|5|48
e|DV|d23cc47e-da96-4042-a69f-60097beaef0e|1|[?]|[?]|[?]|3|TREATMENT|2021-01-29|2021-03-02|18|50
e|DV|b896c679-87d0-4e29-ad27-3944cf09b3ec|1|[?]|[?]|[?]|3|SCREENING|2021-03-20|2021-03-31|87|98
e|DV|6d0ec221-6eb6-4fed-806e-2bc700968333|1|[?]|[?]|[?]|1|TREATMENT|2020-08-22|2020-09-10|36|55
e|DV|1ba07712-d5a0-41a5-b5ee-636fa0bce22a|1|[?]|[?]|[?]|6|WASHOUT|2020-09-25|2020-10-06|2|13
e|DV|15e5e7ca-b832-450c-a20c-b21585086328|1|[?]|[?]|[?]|3|TREATMENT|2021-01-19|2021-02-28|24|64
e|DV|b46ff3a2-f257-4803-8064-e29bd1114bfc|1|[?]|[?]|[?]|4|FOLLOW-UP|2020-10-19|2020-12-09|16|67
e|DV|b269c0ea-d3db-4052-9dc7-a55ac59d82a6|1|[?]|[?]|[?]|1|SCREENING|2020-12-25|2021-02-05|29|71
e|DV|a5c667d1-d2ac-49f7-ad44-bf9a44762025|1|[?]|[?]|[?]|5|TREATMENT|2020-10-24|2020-10-28|28|32
e|DV|944a2627-13f1-4ecf-9545-8819a1327138|1|[?]|[?]|[?]|2|TREATMENT|2021-03-05|2021-03-22|57|74
e|DV|7902955a-6336-45e5-a15d-7c368a28ac4f|1|[?]|[?]|[?]|7|TREATMENT|2020-05-31|2020-08-03|9|73
e|DV|aeef8a2d-167c-41e7-baa6-a3dc756bbb49|1|[?]|[?]|[?]|7|TREATMENT|2020-12-26|2021-01-03|16|24
e|DV|6071d81f-2f38-414f-90ca-4ad80c971054|1|[?]|[?]|[?]|3|TREATMENT|2020-10-14|2020-11-11|47|75
e|DV|22ffaa50-941f-4d52-b73b-84e13d2bb4bd|1|[?]|[?]|[?]|3|WASHOUT|2020-12-12|2020-12-15|85|88
e|DV|a046d48d-b1fa-4d46-902e-3984aed00ec7|1|[?]|[?]|[?]|4|TREATMENT|2020-08-20|2020-10-24|29|94
e|DV|8b60e1b0-2cd9-419d-b345-9006af042932|1|[?]|[?]|[?]|2|WASHOUT|2020-12-28|2021-03-12|22|96
e|DV|712029bc-471a-4e3d-9123-e38b3c38bc6c|1|[?]|[?]|[?]|3|WASHOUT|2021-01-27|2021-02-24|13|41
e|DV|92c0183d-5704-45ad-9aec-e24bc5777b80|1|[?]|[?]|[?]|5|TREATMENT|2021-01-23|2021-03-17|13|66
e|DV|52ce3b1f-9500-4323-861d-73c8b96f59de|1|[?]|[?]|[?]|7|TREATMENT|2020-12-02|2020-12-13|47|58
e|DV|3655d198-2e7e-419e-8337-d7eea7d795ca|1|[?]|[?]|[?]|1|TREATMENT|2020-12-04|2021-02-11|21|90
e|DV|d47da6bf-8abf-4b62-8bb8-797155981158|1|[?]|[?]|[?]|1|TREATMENT|2020-09-09|2020-09-23|9|23
e|DV|25e81c81-8c23-4c9e-be79-35247384dd1f|1|[?]|[?]|[?]|4|TREATMENT|2020-10-09|2020-11-03|72|97
e|DV|4fd91c6c-3bc6-498a-a977-ee834c3bcb97|1|[?]|[?]|[?]|4|FOLLOW-UP|2020-07-22|2020-09-08|5|53
e|DV|21d29ae6-bb12-4c5c-b32a-32ab4ddcf547|1|[?]|[?]|[?]|2|SCREENING|2020-12-10|2021-01-10|38|69
e|DV|5ba70148-c29b-47af-9280-10d1a942380a|1|[?]|[?]|[?]|6|TREATMENT|2020-12-26|2021-02-21|38|95
e|DV|93b3c298-d81f-4d71-9c5d-ba5b4d4bdf42|1|[?]|[?]|[?]|7|TREATMENT|2020-05-20|2020-05-31|3|14
e|DV|2d8f8b1e-7914-400b-afc5-8dc23a626d76|1|[?]|[?]|[?]|3|TREATMENT|2020-06-12|2020-06-13|3|4
e|DV|9d3f5b5e-ebd4-4540-8b4d-14733497ed8e|1|[?]|[?]|[?]|7|FOLLOW-UP|2020-09-28|2020-09-30|49|51
e|DV|a73142e4-e34b-4144-b95f-7a5562574c1b|1|[?]|[?]|[?]|7|TREATMENT|2020-08-01|2020-08-10|3|12
e|DV|a9bdb550-aa73-4194-a4b1-c69fa5dd2d4b|1|[?]|[?]|[?]|4|TREATMENT|2020-06-30|2020-07-07|37|44
e|DV|0f682806-b63c-4c3f-9fda-1e59befbd3a3|1|[?]|[?]|[?]|2|TREATMENT|2020-07-30|2020-08-18|72|91
e|DV|1d8aba56-f62e-4116-b447-899dedd3d4df|1|[?]|[?]|[?]|4|TREATMENT|2020-11-10|2020-11-21|52|63
e|DV|77bbd5c9-a7c4-43d1-a392-5dd44cfbfe4f|1|[?]|[?]|[?]|3|WASHOUT|2020-08-07|2020-08-22|3|18
e|DV|383d3f30-14b7-48c3-b1a8-0f481ef37a50|1|[?]|[?]|[?]|2|TREATMENT|2020-06-02|2020-06-09|5|12
e|DV|b4f81b74-fee9-4544-9404-206d931ed8e5|1|[?]|[?]|[?]|5|TREATMENT|2020-10-24|2020-10-31|16|23
e|DV|9e69b457-20db-45e5-a535-0cd8ac102fea|1|[?]|[?]|[?]|4|TREATMENT|2020-06-11|2020-07-07|14|40
e|DV|14211798-ddf6-47c8-bd9d-056d95bad8ff|1|[?]|[?]|[?]|6|TREATMENT|2020-10-19|2020-12-23|33|98
e|DV|63f3194e-9b88-491a-9a68-19109ed86e2b|1|[?]|[?]|[?]|5|TREATMENT|2020-06-17|2020-07-08|17|38
e|DV|b6208258-d7c2-4dde-addf-4677946ab165|1|[?]|[?]|[?]|4|WASHOUT|2020-11-01|2020-11-05|52|56
e|DV|a669a7b9-2034-4bca-aa80-0371c5fb46d3|1|[?]|[?]|[?]|6|WASHOUT|2021-01-18|2021-01-29|2|13
e|DV|e148c13d-ee41-4503-a7e5-397dd6155f04|1|[?]|[?]|[?]|3|FOLLOW-UP|2020-08-05|2020-09-09|28|63
e|DV|815de94a-f259-41ee-8951-8df150184a25|1|[?]|[?]|[?]|6|TREATMENT|2020-08-11|2020-09-03|45|68
e|DV|c897cd09-0cbc-4a2f-a902-1c736a6c3a02|1|[?]|[?]|[?]|6|SCREENING|2020-06-12|2020-07-10|37|65
e|DV|d68e5fe0-ab34-4565-9e5d-6ff1f72217f1|1|[?]|[?]|[?]|3|WASHOUT|2021-01-25|2021-02-03|10|19
e|DV|a616ef00-05d6-459a-8474-06ab3eb493b1|1|[?]|[?]|[?]|7|TREATMENT|2020-10-13|2020-10-26|28|41
e|DV|a6cbce6b-ec22-4f4e-9990-b2c106a4554e|1|[?]|[?]|[?]|1|FOLLOW-UP|2020-08-21|2020-09-17|11|38
e|DV|870f5f68-aa8a-4484-8d9d-febc7d5b83a2|1|[?]|[?]|[?]|7|WASHOUT|2020-10-30|2020-11-27|19|47
e|DV|ffbb87da-c0a3-4acf-94e2-b1473cbd60e3|1|[?]|[?]|[?]|1|FOLLOW-UP|2020-08-27|2020-09-09|64|77
e|DV|2014bcd0-1430-4096-87f5-650a01dae626|1|[?]|[?]|[?]|3|TREATMENT|2020-05-28|2020-05-29|7|8
e|DV|e043f1b3-6b65-45c0-bdae-eb783406c263|1|[?]|[?]|[?]|5|TREATMENT|2021-01-08|2021-02-07|68|98
e|DV|45623c39-86de-4b2f-bf2d-998d0e941e92|1|[?]|[?]|[?]|2|SCREENING|2020-08-23|2020-09-19|42|69
e|DV|a753f9c8-2f9a-4f54-80e0-b080e82dcb94|1|[?]|[?]|[?]|7|TREATMENT|2020-12-06|2020-12-26|59|79
e|DV|e5a105f7-38ac-4f19-aace-4149ed9b1100|1|[?]|[?]|[?]|1|TREATMENT|2020-09-17|2020-10-01|24|38
e|DV|c568ab93-8e7f-4e4e-9685-f0c13f293606|1|[?]|[?]|[?]|2|WASHOUT|2021-01-25|2021-02-03|21|30
e|DV|bccd8af0-2ecf-4091-92e4-681597b57ca4|1|[?]|[?]|[?]|3|TREATMENT|2020-10-14|2020-10-23|24|33
e|DV|bf069a02-03a6-4013-b16d-d7c954a6cc3d|1|[?]|[?]|[?]|7|SCREENING|2020-10-12|2020-10-25|77|90
e|DV|c40fc52b-2668-4fab-b051-5b258da72f2c|1|[?]|[?]|[?]|5|SCREENING|2020-11-24|2020-12-28|54|88
e|DV|d7c792d8-fc98-41ab-8a9e-59de1e186a06|1|[?]|[?]|[?]|3|WASHOUT|2020-07-20|2020-07-21|2|3
e|DV|f7773659-f207-4b29-8389-3aa766a6337a|1|[?]|[?]|[?]|2|TREATMENT|2020-10-13|2020-11-25|4|47
e|DV|9fa8c7af-c759-420d-a548-cc24c7ddbcdf|1|[?]|[?]|[?]|7|TREATMENT|2021-03-04|2021-03-10|66|72
e|DV|c0b85664-0ef6-4f93-8f84-ee87e1ca9f0f|1|[?]|[?]|[?]|6|TREATMENT|2021-01-23|2021-02-04|7|19
e|DV|700049a2-ef66-466b-b1d8-f0800bcfde43|1|[?]|[?]|[?]|4|TREATMENT|2020-06-22|2020-06-23|5|6
e|DV|00d906a6-2d14-4199-aff9-524388c5117f|1|[?]|[?]|[?]|1|WASHOUT|2021-01-04|2021-02-16|51|94
e|DV|2fcc5910-bce0-4510-b17e-3925850d6d32|1|[?]|[?]|[?]|6|TREATMENT|2020-12-21|2021-01-23|15|48
e|DV|a17fa9ed-b1fa-451c-8f51-ed1ab1b75366|1|[?]|[?]|[?]|6|SCREENING|2020-08-29|2020-09-01|8|11
e|DV|6020ccb5-0bbe-4318-b99f-7a69b10b85a4|1|[?]|[?]|[?]|1|TREATMENT|2020-08-26|2020-09-29|41|75
e|DV|b6e22f6b-25a9-4d18-8de1-2bb4c261e4c9|1|[?]|[?]|[?]|6|TREATMENT|2020-10-24|2020-10-26|6|8
e|DV|ff163542-abec-4260-b257-f15a11e580ee|1|[?]|[?]|[?]|5|TREATMENT|2020-10-20|2020-11-09|75|95
e|DV|bb73f732-a52f-4013-9ae6-60ff23b9c224|1|[?]|[?]|[?]|5|TREATMENT|2020-08-16|2020-10-16|21|82
e|DV|56fd91d0-502c-4e19-b7df-1e7dd2ad3cd5|1|[?]|[?]|[?]|7|SCREENING|2020-10-06|2020-10-10|87|91
e|DV|8e056558-ffd2-4c43-bbfa-40914b38af34|1|[?]|[?]|[?]|3|WASHOUT|2021-02-09|2021-02-15|21|27
e|DV|b7ffe7f2-7eb9-42a1-a548-9f26ee72799b|1|[?]|[?]|[?]|4|FOLLOW-UP|2020-06-04|2020-06-08|16|20
e|DV|624c1353-347a-417d-9aab-7f1e7077ba7f|1|[?]|[?]|[?]|3|TREATMENT|2020-10-11|2020-10-12|54|55
e|DV|ef1cddb8-f4ce-45c4-8671-32fe95f00993|1|[?]|[?]|[?]|7|TREATMENT|2020-10-09|2020-10-21|78|90
e|DV|da6294b5-de91-4bf7-b160-55d22fefcb07|1|[?]|[?]|[?]|2|SCREENING|2020-07-06|2020-09-21|18|95
e|DV|c01c16d4-7a37-421d-9191-1874eba6a1e3|1|[?]|[?]|[?]|7|TREATMENT|2020-11-08|2020-12-25|40|87
e|DV|6036407d-5ac8-400d-91f7-afd63f3cab88|1|[?]|[?]|[?]|1|TREATMENT|2020-07-15|2020-08-14|33|63
e|DV|69cf0c4b-13f6-4955-8046-72a333059d6e|1|[?]|[?]|[?]|1|SCREENING|2020-12-13|2020-12-16|7|10
e|DV|19829028-595c-4811-90e3-0ca696a04ba3|1|[?]|[?]|[?]|7|SCREENING|2020-08-19|2020-08-30|45|56
e|DV|562a8182-8e9b-4a68-9b95-bc52df58ed46|1|[?]|[?]|[?]|3|TREATMENT|2020-08-31|2020-09-19|5|24
e|DV|b29e6912-42f4-471b-ad90-1ec446f89ac0|1|[?]|[?]|[?]|5|TREATMENT|2021-02-23|2021-03-09|45|59
e|DV|2cb58751-c0c4-432c-8f60-22dba6e1ec9a|1|[?]|[?]|[?]|5|WASHOUT|2020-06-09|2020-07-12|10|43
e|DV|396295ba-9f4c-4689-88c2-f80cb28b567a|1|[?]|[?]|[?]|7|TREATMENT|2021-01-28|2021-02-10|38|51
e|DV|56072c44-67c3-4c93-8db7-2d1570b2bbbc|1|[?]|[?]|[?]|2|WASHOUT|2020-10-21|2020-11-18|66|94
e|DV|55b23180-01f2-498e-a0af-cb9cd7d81750|1|[?]|[?]|[?]|2|TREATMENT|2020-07-14|2020-09-27|23|98
e|DV|22e2b674-dc3f-476d-b3d7-2b1f4ddeea1a|1|[?]|[?]|[?]|2|TREATMENT|2021-01-30|2021-02-05|92|98
e|DV|940e4aef-5648-46b3-9c3e-7c40f7930030|1|[?]|[?]|[?]|1|WASHOUT|2020-12-27|2021-02-11|52|98
e|DV|e4bece1e-6672-4b55-824f-56aa923e60f9|1|[?]|[?]|[?]|1|SCREENING|2020-08-25|2020-09-08|74|88
e|DV|12e607da-f53c-4078-9742-23a111db6f54|1|[?]|[?]|[?]|1|TREATMENT|2020-10-25|2020-10-31|32|38
e|DV|ca763b7f-2e60-4423-a7a8-b5fad4a74b25|1|[?]|[?]|[?]|3|SCREENING|2021-03-16|2021-04-07|59|81
e|DV|1f6b4ff8-fc33-46c7-8298-fe2e9ea62d60|1|[?]|[?]|[?]|2|TREATMENT|2020-07-23|2020-08-23|17|48
e|DV|3260122d-3bf4-45ff-a026-2379158721d0|1|[?]|[?]|[?]|3|TREATMENT|2020-06-18|2020-07-29|24|65
e|DV|05eb4e29-887e-4cdb-8854-49939a8a13d1|1|[?]|[?]|[?]|5|WASHOUT|2020-11-13|2020-12-11|18|46
e|DV|c8390c70-766d-4252-9356-39591651bcdf|1|[?]|[?]|[?]|1|SCREENING|2020-09-11|2020-11-08|41|99
e|DV|a40bf877-c070-40b3-89df-d566b942246e|1|[?]|[?]|[?]|6|SCREENING|2020-08-18|2020-08-19|73|74
e|DV|e9633621-3d08-4b47-b394-5bd3fa47c07f|1|[?]|[?]|[?]|3|TREATMENT|2021-01-19|2021-04-14|13|98
e|DV|ff56cb6e-b6c4-49cc-ad21-9a4d20aad7ee|1|[?]|[?]|[?]|7|SCREENING|2020-07-15|2020-08-04|47|67
e|DV|ee525e77-38dd-4b0b-88f4-69759d5dbfd9|1|[?]|[?]|[?]|7|FOLLOW-UP|2020-08-10|2020-09-23|35|79
e|DV|63f43990-e56e-440c-a445-76e7d114cf26|1|[?]|[?]|[?]|6|SCREENING|2020-10-21|2020-11-07|29|46
e|DV|380c89f4-2650-4a54-92f5-5e1278b9a91e|1|[?]|[?]|[?]|2|WASHOUT|2020-10-15|2020-10-18|3|6
e|DV|84c1f5f4-6415-49d8-b854-22e7529d65b6|1|[?]|[?]|[?]|6|FOLLOW-UP|2021-01-09|2021-01-22|45|58
e|DV|77c26a0c-0c84-44d7-8351-a50f3236e59a|1|[?]|[?]|[?]|7|TREATMENT|2020-06-14|2020-07-24|41|81
e|DV|a201c78a-e826-4f42-a997-7c6a019e2c91|1|[?]|[?]|[?]|1|TREATMENT|2020-08-17|2020-09-27|24|65
e|DV|c41880bd-1e29-4961-b74d-bb0d979ab00f|1|[?]|[?]|[?]|3|TREATMENT|2020-10-20|2020-10-23|49|52
e|DV|7de60015-fa9d-4a39-bd19-51c718a624e6|1|[?]|[?]|[?]|5|TREATMENT|2020-12-22|2021-01-13|69|91
e|DV|34d03f58-155a-4908-bba3-aa979be84610|1|[?]|[?]|[?]|2|TREATMENT|2020-07-12|2020-09-21|23|94
e|DV|3818424f-cbc9-4e79-94b8-7edbc706bdbc|1|[?]|[?]|[?]|2|TREATMENT|2020-09-29|2020-10-24|47|72
e|DV|4191788e-b2dc-4885-87d8-da9feb6deea5|1|[?]|[?]|[?]|6|TREATMENT|2020-09-25|2020-12-04|24|94
e|DV|8572a9c4-eb87-4745-81b9-8316bc8de69e|1|[?]|[?]|[?]|5|SCREENING|2021-01-10|2021-02-01|27|49
e|DV|74c9d1b3-6466-43c1-95b0-b720a0dd6e37|1|[?]|[?]|[?]|5|WASHOUT|2020-12-01|2020-12-18|15|32
e|DV|3eceae61-a4a0-49fd-964b-9f142e0da067|1|[?]|[?]|[?]|6|TREATMENT|2020-09-29|2020-10-10|42|53
e|DV|fe7ad71c-601d-4909-b56a-401c9a10f00c|1|[?]|[?]|[?]|4|TREATMENT|2020-06-14|2020-08-16|34|97
e|DV|cc52d895-5819-46c0-b8e6-b948f1cd2408|1|[?]|[?]|[?]|6|FOLLOW-UP|2020-07-12|2020-07-22|16|26
e|DV|b56a5fe6-1191-4e36-ad30-2f9fc0a2fb72|1|[?]|[?]|[?]|2|TREATMENT|2021-02-28|2021-04-23|40|94
e|DV|1409edea-a372-4938-889b-df6ee93b8543|1|[?]|[?]|[?]|3|WASHOUT|2020-09-09|2020-09-14|23|28
e|DV|3dc16ad2-d49d-4fad-9823-d0197fb57a42|1|[?]|[?]|[?]|5|TREATMENT|2020-09-14|2020-11-19|20|86
e|DV|7c244128-0508-422f-88ba-ecce68cec054|1|[?]|[?]|[?]|1|FOLLOW-UP|2020-09-23|2020-09-26|59|62
e|DV|247814c7-9fb3-43f2-9e0a-db70b27b3d95|1|[?]|[?]|[?]|5|TREATMENT|2021-01-07|2021-01-21|32|46
e|DV|e870fe2f-b08c-41d9-a672-07da09fe2b99|1|[?]|[?]|[?]|5|TREATMENT|2020-08-30|2020-10-16|28|75
e|DV|32979638-fb88-4cbb-a110-a4d2016e9bc5|1|[?]|[?]|[?]|2|TREATMENT|2020-07-28|2020-07-30|23|25
e|DV|39b8db88-810b-4402-9ca3-c2bab1939c1c|1|[?]|[?]|[?]|7|WASHOUT|2020-11-10|2020-12-07|5|32
e|DV|b6cce9a5-9b5d-4dd2-80ad-0c6a5b1ed640|1|[?]|[?]|[?]|5|TREATMENT|2020-07-29|2020-09-23|12|68
e|DV|bca1f50d-04e6-46f5-afb3-e48aaea1069d|1|[?]|[?]|[?]|7|TREATMENT|2020-10-26|2020-10-28|2|4
e|DV|6bddadef-13fb-4fab-b281-aa33aa97aa8f|1|[?]|[?]|[?]|7|FOLLOW-UP|2020-05-28|2020-06-13|14|30
e|DV|6edb7414-d8f4-44da-8483-504b93a7e705|1|[?]|[?]|[?]|3|TREATMENT|2020-05-31|2020-07-20|3|53
e|DV|3fd8445d-f3b1-46ac-b5ae-a0e5a7f32210|1|[?]|[?]|[?]|7|FOLLOW-UP|2020-06-16|2020-07-28|41|83
e|DV|b005dec4-0aed-484d-b20a-bb18cf8ddbe6|1|[?]|[?]|[?]|2|FOLLOW-UP|2020-08-04|2020-08-09|88|93
e|DV|47d55e87-e559-424d-a6ad-d533a0d77f39|1|[?]|[?]|[?]|4|TREATMENT|2021-02-08|2021-03-03|37|60
e|DV|f89c08df-2e24-4c97-a451-1980cecebf14|1|[?]|[?]|[?]|2|TREATMENT|2020-12-10|2020-12-21|2|13
e|DV|dbb225ed-e322-4946-a60a-0fafd7e22953|1|[?]|[?]|[?]|6|TREATMENT|2021-02-24|2021-03-02|41|47
e|DV|95e61698-43f7-4cc5-aafa-06dac7870743|1|[?]|[?]|[?]|1|TREATMENT|2020-12-18|2020-12-27|3|12
e|DV|151308c7-03aa-4a0b-b13f-9838edb218ef|1|[?]|[?]|[?]|2|TREATMENT|2020-09-24|2020-10-29|21|56
e|DV|f38e0fff-e3f9-4687-b35b-f11f58b2b5f5|1|[?]|[?]|[?]|5|TREATMENT|2020-06-19|2020-07-08|14|33
e|DV|23605586-1b30-4f05-bb15-417dd3a79994|1|[?]|[?]|[?]|5|FOLLOW-UP|2020-11-12|2020-11-19|22|29
e|DV|57d15ac0-06a6-40e0-9201-4d947651c9b0|1|[?]|[?]|[?]|6|TREATMENT|2020-09-13|2020-10-16|26|59
e|DV|7dbd7e4e-12c2-48c2-9ac2-4d9176922722|1|[?]|[?]|[?]|4|FOLLOW-UP|2020-09-27|2020-10-09|56|68
e|DV|5dbb73e4-6e14-45c4-bcaa-2c571199c74f|1|[?]|[?]|[?]|1|TREATMENT|2020-09-14|2020-09-24|24|34
e|DV|ec2c7d40-5bcb-408d-bf6c-77667a92e2d1|1|[?]|[?]|[?]|4|SCREENING|2021-01-27|2021-02-16|44|64
e|DV|24c65d59-8d34-4d91-bf0b-6fc6aaaab8ae|1|[?]|[?]|[?]|6|FOLLOW-UP|2020-07-10|2020-09-06|18|76
e|DV|81f62132-123e-4888-abbe-8e289599e965|1|[?]|[?]|[?]|6|SCREENING|2020-11-26|2020-11-27|2|3
e|DV|c16c0dd1-8d1a-4be6-9017-457db68bb8e4|1|[?]|[?]|[?]|6|WASHOUT|2020-05-12|2020-05-16|6|10
e|DV|49282406-97ec-4108-adf9-e01c18ce59c6|1|[?]|[?]|[?]|1|TREATMENT|2020-07-29|2020-08-06|83|91
e|DV|310936c8-7d24-4eea-9892-1cd8bb675421|1|[?]|[?]|[?]|7|WASHOUT|2020-07-02|2020-09-06|6|72
e|DV|034e303b-5675-4188-bcea-fc2e53b155d6|1|[?]|[?]|[?]|4|TREATMENT|2020-05-24|2020-06-07|2|16
e|DV|b09e4a17-0a71-4cd9-bb8d-97e2cca0f649|1|[?]|[?]|[?]|4|SCREENING|2020-07-11|2020-07-13|14|16
e|DV|c912affb-cbc2-4919-81b4-ecaa03908261|1|[?]|[?]|[?]|2|SCREENING|2020-07-09|2020-07-24|7|22
e|DV|5af817f0-5dfb-4046-ac7c-4bae16a90036|1|[?]|[?]|[?]|7|TREATMENT|2020-07-05|2020-08-02|9|37
e|DV|dcefd656-a59a-4b71-9260-efcbcecd2132|1|[?]|[?]|[?]|6|FOLLOW-UP|2020-05-31|2020-06-01|6|7
e|DV|641c8067-941a-4f1a-a7b1-4eea0242f1d7|1|[?]|[?]|[?]|1|TREATMENT|2020-12-26|2020-12-27|14|15
e|DV|ab6fb8ca-d455-4141-82f7-cdb7eaf7dfda|1|[?]|[?]|[?]|3|SCREENING|2020-10-13|2020-10-14|29|30
e|DV|b7a9c5a6-98ed-4ca1-98ea-4cfc03749c0f|1|[?]|[?]|[?]|3|SCREENING|2020-12-07|2020-12-11|47|51
e|DV|46304edd-0b05-4819-8fcb-35cf9c02764d|1|[?]|[?]|[?]|2|SCREENING|2020-12-10|2020-12-23|17|30
e|DV|3fd6dab2-b35f-4cc5-88dd-b507583d9539|1|[?]|[?]|[?]|1|FOLLOW-UP|2020-06-22|2020-07-26|37|71
e|DV|daa3b89e-637a-43de-86c1-d0db93f00430|1|[?]|[?]|[?]|6|TREATMENT|2020-11-04|2020-11-15|34|45
e|DV|14e9cde0-92f5-48d4-82ec-cc72f07ba40b|1|[?]|[?]|[?]|7|WASHOUT|2020-06-28|2020-06-29|4|5
e|DV|c22014f2-2d7b-4897-8ad5-e46785e51837|1|[?]|[?]|[?]|2|TREATMENT|2020-08-06|2020-08-11|3|8
e|DV|987102b2-fe2f-4d72-b8dc-14a71bf034b5|1|[?]|[?]|[?]|7|FOLLOW-UP|2020-11-02|2020-12-07|32|67
e|DV|24ce0c77-1921-4b87-91da-3627e2afd399|1|[?]|[?]|[?]|3|TREATMENT|2021-02-07|2021-04-08|19|79
e|DV|097351a3-9bb2-4af7-8e96-6d4d9d8ccf87|1|[?]|[?]|[?]|3|FOLLOW-UP|2020-08-30|2020-11-07|20|89
e|DV|f4b83a72-7cde-4e02-8883-05e789c617a8|1|[?]|[?]|[?]|7|SCREENING|2021-01-07|2021-01-21|23|37
e|DV|c4087538-422a-4bcf-af25-ed4aab36ed4b|1|[?]|[?]|[?]|5|WASHOUT|2021-01-21|2021-01-22|22|23
e|DV|947aefaf-20c7-47fc-ac56-140f9b6f38f3|1|[?]|[?]|[?]|2|TREATMENT|2020-11-08|2021-01-20|12|85
e|DV|3a0c00eb-5614-4053-844d-6bdb71efb1cd|1|[?]|[?]|[?]|4|WASHOUT|2020-09-17|2020-10-12|47|72
e|DV|dc3ce247-24dd-4255-85a8-ec7a58d30c86|1|[?]|[?]|[?]|3|WASHOUT|2020-10-22|2020-12-09|21|69
e|DV|61c19f94-bdfc-456d-ba7a-c9097ca1c645|1|[?]|[?]|[?]|4|TREATMENT|2020-06-30|2020-09-02|6|70
e|DV|1e577f2d-2c45-477d-b74f-af24b81d6d20|1|[?]|[?]|[?]|2|WASHOUT|2020-10-11|2020-10-17|28|34
e|DV|f845101e-c057-4f84-94b3-6043afb42ac7|1|[?]|[?]|[?]|3|FOLLOW-UP|2020-10-29|2020-11-08|12|22
e|DV|4ddb2076-6837-4028-81bc-3e8057475977|1|[?]|[?]|[?]|2|TREATMENT|2021-01-03|2021-01-19|17|33
e|DV|c165c69c-2ab2-495c-a190-e32d1204bc4e|1|[?]|[?]|[?]|7|SCREENING|2021-02-05|2021-02-15|45|55
e|DV|fa6801a8-544d-44d7-a3e4-e8e18b2f2f69|1|[?]|[?]|[?]|6|TREATMENT|2021-02-15|2021-02-27|58|70
e|DV|024a9f6d-4ff1-4673-8617-3790f831fce7|1|[?]|[?]|[?]|2|TREATMENT|2020-06-23|2020-07-10|20|37
e|DV|40936fc6-251d-4a17-ae9d-3bd1150f8d20|1|[?]|[?]|[?]|7|FOLLOW-UP|2020-11-13|2020-12-31|5|53
e|DV|17b9fa7a-f15d-423a-9671-99cd0cbbd362|1|[?]|[?]|[?]|1|TREATMENT|2021-01-14|2021-01-28|74|88
e|DV|95c4465b-162a-433d-83c9-6d67dd729c9e|1|[?]|[?]|[?]|7|TREATMENT|2020-10-15|2021-01-03|3|83
e|DV|9a205b50-21a9-4fbc-9ca9-a9378aadd5de|1|[?]|[?]|[?]|5|FOLLOW-UP|2020-07-10|2020-07-29|23|42
e|DV|beb6b1ab-1264-456a-bf2b-81e28493301d|1|[?]|[?]|[?]|7|TREATMENT|2020-06-07|2020-06-27|7|27
e|DV|4292c06d-044e-4dff-aea0-830178a6e220|1|[?]|[?]|[?]|6|SCREENING|2020-12-18|2020-12-19|26|27
e|DV|050c12d2-cf9f-402b-9332-d6a9771ed115|1|[?]|[?]|[?]|4|TREATMENT|2020-09-09|2020-10-23|32|76
e|DV|2f1073e4-607f-423f-a5de-f531b828e2d3|1|[?]|[?]|[?]|4|TREATMENT|2020-11-12|2020-12-04|38|60
e|DV|df466903-3212-4e73-bff0-a183447c7408|1|[?]|[?]|[?]|4|TREATMENT|2021-01-19|2021-01-28|89|98
e|DV|4eeb68ac-cd3a-4d3c-8381-2d715c8fa442|1|[?]|[?]|[?]|2|SCREENING|2020-07-16|2020-08-03|13|31
e|DV|c37df2f6-be8a-4709-b97d-061ab9754e0d|1|[?]|[?]|[?]|2|TREATMENT|2020-08-02|2020-08-13|11|22
e|DV|c0120c9e-c421-4a2e-a85b-170f2d1c0f3f|1|[?]|[?]|[?]|4|FOLLOW-UP|2020-06-12|2020-07-29|40|87
e|DV|cec9e0ce-4d09-470c-9c26-df661d316a69|1|[?]|[?]|[?]|5|TREATMENT|2021-01-16|2021-03-02|21|66
e|DV|b98b4e19-51ac-40cc-80d5-cb6d8000c112|1|[?]|[?]|[?]|2|TREATMENT|2021-01-24|2021-02-06|17|30
e|DV|525e8b0c-b2cf-46b0-a1e1-9f5368ba97df|1|[?]|[?]|[?]|6|TREATMENT|2020-07-07|2020-07-18|10|21
e|DV|4bc30b18-c8d8-41a3-91d5-33b8b064087b|1|[?]|[?]|[?]|4|SCREENING|2020-07-11|2020-08-31|9|60
e|DV|7ff27a70-0472-4cc1-b057-6b161ab29568|1|[?]|[?]|[?]|5|WASHOUT|2020-11-23|2020-12-15|14|36
e|DV|40529b01-9a80-4ada-a8df-96eec0e65043|1|[?]|[?]|[?]|1|FOLLOW-UP|2020-06-24|2020-08-26|17|80
e|DV|f3e22efc-0948-4c6e-9173-8e284d342d33|1|[?]|[?]|[?]|4|TREATMENT|2020-12-03|2020-12-07|7|11
e|DV|919eb5b4-a3df-41c6-86f7-c78501bb4335|1|[?]|[?]|[?]|4|WASHOUT|2020-09-24|2020-09-26|3|5
e|DV|f918d6e0-6fc2-4303-b323-521c5d531773|1|[?]|[?]|[?]|5|TREATMENT|2020-07-23|2020-07-23|2|2
e|DV|1d9bccfd-ab01-460f-b1b5-9d1859ee7f66|1|[?]|[?]|[?]|7|TREATMENT|2020-12-03|2020-12-27|19|43
e|DV|4b1e011f-a16d-4ff6-902d-451d5d13ee97|1|[?]|[?]|[?]|3|TREATMENT|2020-06-19|2020-08-10|8|60
e|DV|d6d26e31-eaa0-4d4b-9df3-3c3d6b38f571|1|[?]|[?]|[?]|6|SCREENING|2020-08-17|2020-08-27|39|49
e|DV|b49e6f4b-862e-4ad5-8964-51c94d2a03ec|1|[?]|[?]|[?]|5|TREATMENT|2021-01-02|2021-02-20|46|95
e|DV|5c7645b5-5b4c-4280-878b-f5bd0e4349a7|1|[?]|[?]|[?]|1|TREATMENT|2020-12-01|2020-12-14|2|15
e|DV|87cd5d40-3ece-4e63-8f8f-13761cc94a2b|1|[?]|[?]|[?]|6|WASHOUT|2020-06-30|2020-07-03|4|7
e|DV|7f1e0661-ebbd-4abd-9031-cb6b424977e2|1|[?]|[?]|[?]|7|FOLLOW-UP|2021-01-14|2021-01-29|42|57
e|DV|324a2c67-4802-4806-aff2-04fb9c7394d4|1|[?]|[?]|[?]|1|TREATMENT|2020-05-29|2020-06-22|12|36
e|DV|9e6a2b90-c6ec-4d7d-96a3-8445f34ad4e7|1|[?]|[?]|[?]|2|FOLLOW-UP|2021-01-02|2021-02-02|24|55
e|DV|f00837ad-bf06-4fbc-a50b-289ac5c5dc03|1|[?]|[?]|[?]|5|TREATMENT|2020-10-11|2020-10-30|58|77
e|DV|911dc297-91cb-42b1-8a26-18f6c83c32a6|1|[?]|[?]|[?]|2|SCREENING|2020-11-29|2020-12-04|8|13
e|DV|d87b795c-d158-4429-bdc6-1a2db7dc1a7d|1|[?]|[?]|[?]|6|TREATMENT|2020-12-23|2021-01-03|38|49
e|DV|9bfcd733-2233-4e54-a6cd-641a59fc8a01|1|[?]|[?]|[?]|5|SCREENING|2020-08-09|2020-08-11|4|6
e|DV|7eb97152-173c-4923-8604-5dad3140cc25|1|[?]|[?]|[?]|1|WASHOUT|2020-08-31|2020-09-03|5|8
e|DV|0b2104d0-e1e3-4516-8c4b-de5d42f82784|1|[?]|[?]|[?]|4|FOLLOW-UP|2020-08-19|2020-09-18|21|51
e|DV|96f68979-6869-403b-a8bd-78c8f965f98a|1|[?]|[?]|[?]|5|TREATMENT|2020-05-25|2020-06-03|9|18
e|DV|e0f67610-b86a-4f5a-88eb-905b1e0aa609|1|[?]|[?]|[?]|2|TREATMENT|2020-11-20|2020-12-05|45|60
e|DV|d62dc655-8865-4592-af0b-744524d9a24c|1|[?]|[?]|[?]|2|WASHOUT|2020-09-30|2020-11-11|11|53
e|DV|6f2a59ba-1a8e-475f-b8c7-d8c6a9bf8b63|1|[?]|[?]|[?]|6|FOLLOW-UP|2020-12-31|2021-01-27|2|29
e|DV|8005bd56-3bd6-477a-a466-b9a3bd189770|1|[?]|[?]|[?]|6|TREATMENT|2021-01-16|2021-03-01|34|78
e|DV|078ea33d-4114-4320-9116-740b8385a94e|1|[?]|[?]|[?]|4|FOLLOW-UP|2020-08-14|2020-08-16|29|31
e|DV|1ca91975-9a42-4f4d-9c55-53f7561d82fa|1|[?]|[?]|[?]|4|TREATMENT|2020-06-01|2020-06-22|8|29
e|DV|c5f292ad-1729-402b-820f-83ecd29ba00d|1|[?]|[?]|[?]|5|FOLLOW-UP|2020-07-19|2020-08-27|51|90
e|DV|a746aefb-16c8-43db-a0c4-8e9a4efdb244|1|[?]|[?]|[?]|5|TREATMENT|2020-07-30|2020-08-05|43|49
e|DV|7f95b9c0-3b77-4c60-8890-ecc955f97122|1|[?]|[?]|[?]|3|FOLLOW-UP|2020-10-09|2020-11-27|24|73
e|DV|2be43c56-83f3-4148-9cb1-97c6d191d20e|1|[?]|[?]|[?]|7|WASHOUT|2020-10-03|2020-11-30|10|68
e|DV|e27e0325-5fbe-46c0-8264-982d83124203|1|[?]|[?]|[?]|4|SCREENING|2020-07-10|2020-09-08|13|73
e|DV|9ff51377-d75c-4c9a-aa45-f2f8d6f4ffbf|1|[?]|[?]|[?]|1|TREATMENT|2020-12-12|2021-01-23|3|45
e|DV|29e08650-9eae-461f-981e-f2a20d8d4492|1|[?]|[?]|[?]|6|FOLLOW-UP|2020-12-09|2020-12-23|32|46
e|DV|2b944a62-10bc-475e-a90d-da3f07a2c4df|1|[?]|[?]|[?]|6|TREATMENT|2020-10-15|2020-11-04|54|74
e|DV|d6e51edb-0983-4ffb-b5a6-59afc2696ce8|1|[?]|[?]|[?]|6|WASHOUT|2020-09-06|2020-12-01|7|93
e|DV|8aa77db3-b078-4073-a7f3-9b9a7fb14570|1|[?]|[?]|[?]|2|FOLLOW-UP|2020-11-07|2020-11-09|5|7
e|DV|1fce031b-680b-414f-9b74-d6383e10091d|1|[?]|[?]|[?]|6|TREATMENT|2020-05-24|2020-06-05|3|15
e|DV|dcc67696-e91a-4cef-81dd-f2d2711363ae|1|[?]|[?]|[?]|5|WASHOUT|2020-12-23|2021-01-01|5|14
e|DV|91e83d7a-186a-4fed-8750-af796d77d356|1|[?]|[?]|[?]|1|TREATMENT|2020-06-16|2020-06-19|24|27
e|DV|fdd8b4e9-8499-45ad-bd93-9de5992faf1e|1|[?]|[?]|[?]|4|WASHOUT|2020-05-20|2020-07-16|17|74
e|DV|0145dfac-a107-4368-b358-bcd136e1ecb3|1|[?]|[?]|[?]|7|TREATMENT|2021-01-24|2021-02-20|26|53
e|DV|cfbbaa65-9742-4682-9ec0-4d503bca0bb1|1|[?]|[?]|[?]|1|FOLLOW-UP|2021-02-15|2021-03-26|58|97
e|DV|d4d79f6a-ba90-4503-934b-8a86286d83d3|1|[?]|[?]|[?]|1|FOLLOW-UP|2020-11-12|2020-11-15|5|8
e|DV|a329c350-49e2-415d-ba3c-e1ee929aec86|1|[?]|[?]|[?]|7|TREATMENT|2020-08-10|2020-08-12|5|7
e|DV|ff0e3543-c1f3-47f8-987f-7b00a4a33704|1|[?]|[?]|[?]|2|TREATMENT|2020-10-02|2020-10-12|11|21
e|DV|128153ce-7bee-4f8d-bb60-fb1776370b6d|1|[?]|[?]|[?]|1|TREATMENT|2021-03-04|2021-03-19|62|77
e|DV|22ee2f20-4a66-458f-a153-9d7e871e1db2|1|[?]|[?]|[?]|3|TREATMENT|2020-06-16|2020-07-10|9|33
e|DV|b7caaa04-bcc7-4350-ad98-85670a19778f|1|[?]|[?]|[?]|4|TREATMENT|2020-07-09|2020-07-29|13|33
e|DV|2b58d5fd-3ec8-415b-bb53-a252049f228a|1|[?]|[?]|[?]|7|FOLLOW-UP|2020-12-17|2020-12-25|10|18
e|DV|60b23345-43f6-42eb-9225-5a674456c9b9|1|[?]|[?]|[?]|2|TREATMENT|2021-01-07|2021-01-27|2|22
e|DV|7979239e-2a6b-48e3-9d11-41c97b33d229|1|[?]|[?]|[?]|3|TREATMENT|2021-01-26|2021-03-18|21|72
e|DV|027cd2f5-6bb8-41b2-8fb7-16ebff6155f1|1|[?]|[?]|[?]|1|WASHOUT|2020-08-07|2020-08-12|11|16
e|DV|3107cfa6-4eb9-433c-9cc6-79ec64f916f9|1|[?]|[?]|[?]|6|TREATMENT|2020-12-28|2020-12-29|2|3
e|DV|da35fc01-4258-4e4d-99d9-4172e84c46e8|1|[?]|[?]|[?]|6|FOLLOW-UP|2020-07-22|2020-10-02|10|82
e|DV|bd163bba-f977-4f1a-8baf-5b6e7ecd94d9|1|[?]|[?]|[?]|3|TREATMENT|2020-07-27|2020-08-12|2|18
e|DV|ddcd6b0e-ca09-4693-bdfc-33e7d7979a6f|1|[?]|[?]|[?]|4|TREATMENT|2020-12-08|2020-12-15|4|11
e|DV|31b865ec-cf8f-499f-85e9-931dbfa2cf1c|1|[?]|[?]|[?]|2|SCREENING|2020-06-19|2020-07-08|20|39
e|DV|3f5d82c3-eb6c-4b9a-8fb7-10cf59e6d4bd|1|[?]|[?]|[?]|3|TREATMENT|2020-05-17|2020-05-18|3|4
e|DV|136d59c6-9645-447a-a047-68d33dbb708e|1|[?]|[?]|[?]|1|SCREENING|2020-09-21|2020-09-27|7|13
e|DV|2e393b90-213c-4661-ad55-cabb2008bf14|1|[?]|[?]|[?]|3|WASHOUT|2020-08-08|2020-08-30|53|75
e|DV|f72002d8-262b-49da-84a4-42e6011286f0|1|[?]|[?]|[?]|2|TREATMENT|2020-10-11|2020-10-27|7|23
e|DV|68869dda-531d-4218-b2b0-4f5f46825569|1|[?]|[?]|[?]|6|FOLLOW-UP|2020-12-12|2020-12-22|14|24
e|DV|68888445-1819-4f4c-bd0c-a445906476fb|1|[?]|[?]|[?]|2|TREATMENT|2021-02-11|2021-03-03|38|58
e|DV|b2ce31a0-513a-449a-aa2c-7c9668fde275|1|[?]|[?]|[?]|5|TREATMENT|2020-06-16|2020-09-01|2|79
e|DV|6c1d481b-985a-4be0-97ca-ecd06a81b456|1|[?]|[?]|[?]|2|SCREENING|2020-11-10|2020-11-12|46|48
e|DV|645a9247-efcb-4641-9514-58d6e28560e0|1|[?]|[?]|[?]|7|TREATMENT|2020-12-27|2021-02-11|16|62
e|DV|9e2164c8-0f5b-4951-83b8-487ed7b2d0a7|1|[?]|[?]|[?]|3|TREATMENT|2020-09-11|2020-09-27|6|22
e|DV|05b05951-b1ba-4c51-b50f-9c842532bc4e|1|[?]|[?]|[?]|2|WASHOUT|2020-08-22|2020-09-02|35|46
e|DV|ab38e976-8c2b-48ff-bdba-5a056637ecdd|1|[?]|[?]|[?]|2|TREATMENT|2020-12-04|2020-12-22|52|70
e|DV|f19cb801-34fc-42fd-8691-ccfb6c5f8bb6|1|[?]|[?]|[?]|4|WASHOUT|2020-09-18|2020-09-24|28|34
e|DV|51a49847-6405-4842-b549-0e2ab99f61b2|1|[?]|[?]|[?]|6|TREATMENT|2021-02-04|2021-03-18|29|71
e|DV|44dcfb9a-c590-4826-a28c-b5e9f83129d5|1|[?]|[?]|[?]|3|TREATMENT|2020-06-30|2020-08-18|50|99
e|DV|98166d74-caa7-4693-a817-b2cbae947ff8|1|[?]|[?]|[?]|5|FOLLOW-UP|2021-01-05|2021-02-02|4|32
e|DV|cb07675a-2042-44da-a1f9-8b7783347e88|1|[?]|[?]|[?]|2|FOLLOW-UP|2020-11-27|2020-12-12|2|17
e|DV|a8a14aa1-4484-4bbc-86bf-c44257146a26|1|[?]|[?]|[?]|2|WASHOUT|2020-07-24|2020-08-11|33|51
e|DV|dfa4c661-9317-4bec-b307-a31eeadcaba6|1|[?]|[?]|[?]|4|SCREENING|2020-05-27|2020-05-27|2|2
e|DV|9ed984a9-c153-4729-9dc9-3bb3d9059919|1|[?]|[?]|[?]|1|TREATMENT|2020-11-27|2020-11-29|97|99
e|DV|fb234b67-3c81-4d55-bc63-2389a23d67b2|1|[?]|[?]|[?]|5|TREATMENT|2021-01-03|2021-03-03|2|61
e|DV|84d7ff44-cbe2-446f-b667-5bc539de519b|1|[?]|[?]|[?]|4|TREATMENT|2020-07-14|2020-08-06|18|41
e|DV|c96e4485-4aff-4c18-9c65-5f1a800cc6db|1|[?]|[?]|[?]|1|TREATMENT|2020-09-16|2020-09-18|2|4
e|DV|955188f1-b434-40ab-94c8-0c0fb7f23e84|1|[?]|[?]|[?]|4|WASHOUT|2020-12-06|2020-12-20|2|16
e|DV|5a384b5e-954c-4af9-bd60-96aadc72ca44|1|[?]|[?]|[?]|5|TREATMENT|2020-10-01|2020-10-11|2|12
e|DV|2c2d4104-35dd-4f81-ac31-ab1f84c2bc35|1|[?]|[?]|[?]|3|SCREENING|2020-07-17|2020-08-06|25|45
e|DV|f9432d72-f7d7-4cdf-a173-2e2029258474|1|[?]|[?]|[?]|7|SCREENING|2020-12-27|2021-01-18|47|69
e|DV|1382c3ff-89fd-48e2-b64d-56c8ca9c71d3|1|[?]|[?]|[?]|5|SCREENING|2021-01-27|2021-02-22|49|75
e|DV|0fc0650f-ed95-422d-b407-dcee93178780|1|[?]|[?]|[?]|4|TREATMENT|2020-08-25|2020-10-15|12|63
e|DV|3b5e8a1c-1174-4f60-8a95-b2cf413f7e39|1|[?]|[?]|[?]|3|TREATMENT|2020-05-29|2020-05-31|5|7
e|DV|a6f48290-787a-46ad-bee1-ae263ad3c121|1|[?]|[?]|[?]|3|WASHOUT|2021-01-24|2021-03-10|15|60
e|DV|565e5c83-9c67-4718-bd54-af34be936427|1|[?]|[?]|[?]|1|TREATMENT|2020-06-23|2020-06-25|24|26
e|DV|b238304c-15ef-4c6e-a32c-9cd583a233a9|1|[?]|[?]|[?]|3|TREATMENT|2021-01-12|2021-02-12|15|46
e|DV|c273f039-bca9-4d55-8620-5c5db32a6c4b|1|[?]|[?]|[?]|5|TREATMENT|2020-09-24|2020-12-06|11|84
e|DV|2cdb5053-2108-4f50-8906-8afabc855a36|1|[?]|[?]|[?]|5|SCREENING|2020-09-13|2020-09-25|26|38
e|DV|fce7149a-503e-4209-8c62-8044a2ad1c1c|1|[?]|[?]|[?]|6|TREATMENT|2020-09-08|2020-10-13|43|78
e|DV|c8aad550-11a1-4473-8b35-79b7dfb08122|1|[?]|[?]|[?]|3|TREATMENT|2020-06-23|2020-07-08|24|39
e|DV|f1967c6e-c520-4482-be7e-01ada4380d87|1|[?]|[?]|[?]|5|FOLLOW-UP|2021-02-14|2021-02-23|50|59
e|DV|2a5a1c03-f54e-47da-8dda-2104c9423e94|1|[?]|[?]|[?]|2|SCREENING|2021-01-17|2021-02-06|26|46
e|DV|8f98bac3-8010-4902-8ae1-783dc5fea72d|1|[?]|[?]|[?]|3|TREATMENT|2020-08-02|2020-08-11|44|53
e|DV|0fd7cece-4d9d-4d8c-82e0-df0c75613888|1|[?]|[?]|[?]|6|SCREENING|2020-12-04|2021-02-09|3|70
e|DV|1ade93f5-35f2-4bcc-9b9b-519c3f13baf9|1|[?]|[?]|[?]|3|TREATMENT|2020-06-14|2020-07-07|11|34
e|DV|4be1ea69-9baf-45b4-873b-13a879544d9c|1|[?]|[?]|[?]|5|SCREENING|2021-01-23|2021-02-19|7|34
e|DV|7480ca7e-bffc-455b-a08e-c732ac6c8b4e|1|[?]|[?]|[?]|7|TREATMENT|2020-10-23|2020-11-19|4|31
e|DV|16720f71-55b5-478f-b041-00b61ae19ac9|1|[?]|[?]|[?]|5|FOLLOW-UP|2021-01-04|2021-01-07|4|7
e|DV|4349f45e-f18b-4606-9a72-fd45e64e17dc|1|[?]|[?]|[?]|3|TREATMENT|2021-03-23|2021-04-01|81|90
e|DV|32e36ec1-6895-42ff-bf33-52977e72b338|1|[?]|[?]|[?]|1|SCREENING|2020-09-22|2020-11-04|27|70
e|DV|e546f2d8-baea-4a6e-93cb-c7ec7292b423|1|[?]|[?]|[?]|7|FOLLOW-UP|2020-11-03|2020-11-13|19|29
e|DV|0329de16-fc7a-4941-900c-b390dac637aa|1|[?]|[?]|[?]|1|TREATMENT|2020-09-23|2020-12-17|6|91
e|DV|89d364c9-1338-472b-af0b-19280e45508b|1|[?]|[?]|[?]|5|FOLLOW-UP|2020-10-30|2020-11-02|25|28
e|DV|ecd8ff7b-9c30-4b74-ad95-f8555c59ab5e|1|[?]|[?]|[?]|4|WASHOUT|2020-07-04|2020-07-07|48|51
e|DV|f53c6f33-e2a6-4153-b1d6-9073f4ddefd1|1|[?]|[?]|[?]|6|FOLLOW-UP|2020-11-16|2020-11-23|45|52
e|DV|0c103005-efae-48ed-91e3-35d38fa1d359|1|[?]|[?]|[?]|2|TREATMENT|2020-06-24|2020-06-27|37|40
e|DV|c9808184-3432-448c-a5e5-50176715effa|1|[?]|[?]|[?]|7|TREATMENT|2020-12-24|2021-02-01|5|44
e|DV|c3d7d293-975f-44de-bd35-0168eec40ac9|1|[?]|[?]|[?]|6|TREATMENT|2021-02-03|2021-03-23|40|88
e|DV|2db1f07d-a7db-4cc3-8943-536e24378f08|1|[?]|[?]|[?]|2|TREATMENT|2020-06-17|2020-08-08|15|67
e|DV|c343ba98-87d7-40bc-b0e8-b866e42d3a21|1|[?]|[?]|[?]|1|TREATMENT|2021-02-13|2021-02-22|70|79
e|DV|d2b31ba9-9718-43ce-82ca-3276c28ac42a|1|[?]|[?]|[?]|4|FOLLOW-UP|2021-01-01|2021-02-12|38|80
e|DV|4aa77a8a-bbbe-4b7f-91fb-1edb3b61b711|1|[?]|[?]|[?]|4|SCREENING|2020-07-20|2020-07-31|7|18
e|DV|0a42f96a-49c3-492f-a272-bf9989e53e9d|1|[?]|[?]|[?]|5|TREATMENT|2021-02-12|2021-03-02|27|45
e|DV|a78e7287-581c-4bf2-b3ca-ad2476c010cd|1|[?]|[?]|[?]|6|SCREENING|2021-02-09|2021-02-27|42|60
e|DV|d3651e5f-bc38-4c96-afbf-5a65873ff306|1|[?]|[?]|[?]|5|SCREENING|2020-07-30|2020-08-02|12|15
e|DV|4dca1d91-f6fe-4ee7-b4c3-062972eb5f37|1|[?]|[?]|[?]|1|WASHOUT|2020-06-08|2020-07-08|7|37
e|DV|f50537d2-e098-4dae-8f91-16f2357d709c|1|[?]|[?]|[?]|3|TREATMENT|2020-12-31|2021-01-27|34|61
e|DV|7fedb0fd-d2ff-434c-9208-ffabb26d1a98|1|[?]|[?]|[?]|7|WASHOUT|2020-07-15|2020-08-22|6|44
e|DV|489870ed-9da5-4df6-a5ef-17821c449c84|1|[?]|[?]|[?]|1|TREATMENT|2020-08-01|2020-10-03|12|75
e|DV|90fe992f-5a11-4829-b3b0-1c8314f53012|1|[?]|[?]|[?]|7|TREATMENT|2020-09-22|2020-11-20|9|68
e|DV|74be8de0-3307-4cc3-9044-05068b60f7e0|1|[?]|[?]|[?]|3|TREATMENT|2020-11-19|2020-12-09|40|60
e|DV|b95317e6-0acc-4be7-9525-4f6ca6cfe0fc|1|[?]|[?]|[?]|5|TREATMENT|2020-06-13|2020-06-21|12|20
e|DV|8825b806-fa76-49d7-b281-d36fc42fee1e|1|[?]|[?]|[?]|2|FOLLOW-UP|2020-08-22|2020-08-30|3|11
e|DV|c075ec99-ae16-4a7d-b5da-d0f1db78bbac|1|[?]|[?]|[?]|1|FOLLOW-UP|2020-07-20|2020-07-23|72|75
e|DV|def2ec82-35be-4ef5-a1fd-a7212b2d1a1e|1|[?]|[?]|[?]|7|FOLLOW-UP|2021-01-11|2021-01-17|7|13
e|DV|b36220d8-c129-48bf-8c41-542a954b819a|1|[?]|[?]|[?]|5|SCREENING|2020-05-16|2020-06-20|2|37
e|DV|92d3477b-7460-4ce8-b237-38ca4c55fc91|1|[?]|[?]|[?]|5|FOLLOW-UP|2020-08-14|2020-08-25|10|21
e|DV|62b4fc8f-517b-4fa2-ac96-2420934bfd7d|1|[?]|[?]|[?]|1|FOLLOW-UP|2021-01-15|2021-02-18|40|74
e|DV|db13afe0-14f6-445b-869a-b0d9fe87e5b9|1|[?]|[?]|[?]|4|TREATMENT|2020-09-12|2020-10-04|31|53
e|DV|3f75a463-1348-4c7f-8b29-7472d29628c8|1|[?]|[?]|[?]|5|TREATMENT|2020-07-28|2020-08-18|26|47
e|DV|d1644413-1ed4-4ac9-b68f-f7ccb3cf6e42|1|[?]|[?]|[?]|6|FOLLOW-UP|2021-03-03|2021-03-07|42|46
e|DV|4b00b9ef-ddc3-4669-8a73-f69c73743bce|1|[?]|[?]|[?]|3|TREATMENT|2020-07-19|2020-07-28|6|15
e|DV|a125efdf-aec8-47a1-b492-cdaf8b619a78|1|[?]|[?]|[?]|5|TREATMENT|2020-10-05|2020-10-06|15|16
e|DV|9171362e-0166-46f2-ab2d-2748d8c291d5|1|[?]|[?]|[?]|2|TREATMENT|2021-01-30|2021-02-22|28|51
e|DV|9b150e38-dc85-4a28-aad3-43f7620be460|1|[?]|[?]|[?]|4|TREATMENT|2020-08-31|2020-10-19|50|99
e|DV|2a595fc0-7621-4ec9-bd77-74444886052e|1|[?]|[?]|[?]|4|SCREENING|2020-11-18|2020-11-22|34|38
e|DV|0bab89c8-cf57-4d19-9b95-884a2e9da523|1|[?]|[?]|[?]|7|FOLLOW-UP|2021-02-04|2021-03-08|56|88
e|DV|84edaa9d-ce48-4866-ab43-af91bee126ae|1|[?]|[?]|[?]|6|FOLLOW-UP|2020-05-20|2020-07-05|19|65
e|DV|0a955f0d-058a-49ac-bc7f-4f8ef9690f5a|1|[?]|[?]|[?]|4|WASHOUT|2020-07-31|2020-08-25|7|32
e|DV|9734ec2a-d06b-43e1-82a5-37764af17890|1|[?]|[?]|[?]|1|TREATMENT|2020-11-08|2020-12-18|50|90
e|DV|9a0ce525-7f10-4651-885a-f64bd9c8925e|1|[?]|[?]|[?]|5|SCREENING|2021-01-02|2021-02-10|45|84
e|DV|f2cd01c4-b765-4ac5-8e8d-c9fef7366720|1|[?]|[?]|[?]|6|TREATMENT|2020-07-16|2020-07-23|11|18
e|DV|4ba88073-0003-461a-a950-4504ef7680e7|1|[?]|[?]|[?]|4|SCREENING|2020-09-02|2020-09-14|10|22
e|DV|a0079507-0ad8-45e3-94f9-bfe0a80c7c4d|1|[?]|[?]|[?]|2|TREATMENT|2020-08-29|2020-11-01|7|71
e|DV|f552fa78-d78f-44c5-9590-30a737e6652d|1|[?]|[?]|[?]|4|TREATMENT|2020-10-22|2020-11-22|27|58
e|DV|38d83f86-d8ce-461a-a288-95aebe498d22|1|[?]|[?]|[?]|4|TREATMENT|2020-09-26|2020-10-01|42|47
e|DV|b31e8820-cc17-4ce5-af30-358dbeb12ba2|1|[?]|[?]|[?]|7|TREATMENT|2020-08-11|2020-08-14|8|11
e|DV|cf39d5bd-7682-4546-8495-5bcf48600a69|1|[?]|[?]|[?]|2|TREATMENT|2021-01-31|2021-02-05|21|26
e|DV|84c17e7b-8d56-4726-96a5-9ca41fb9d894|1|[?]|[?]|[?]|6|WASHOUT|2021-01-21|2021-02-05|68|83
e|DV|6e557fd7-efaf-4c86-806d-9bd66c7de7da|1|[?]|[?]|[?]|2|TREATMENT|2021-01-31|2021-03-07|14|49
e|DV|2b25e1f9-929c-4bdc-8758-79f33b832026|1|[?]|[?]|[?]|1|SCREENING|2020-10-25|2020-11-02|16|24
e|DV|d02c7553-17f5-44ec-8c24-469234d080e8|1|[?]|[?]|[?]|1|TREATMENT|2021-02-05|2021-02-24|20|39
e|DV|e819939e-548d-4e05-83e3-7976790de7e1|1|[?]|[?]|[?]|7|TREATMENT|2020-09-25|2020-11-13|28|77
e|DV|3b35f16c-38c8-45a2-8872-fe0f0f30b0d9|1|[?]|[?]|[?]|6|TREATMENT|2020-10-12|2020-10-28|65|81
e|DV|ea5229ad-6469-4147-be40-546d27c04c4c|1|[?]|[?]|[?]|2|TREATMENT|2020-06-14|2020-06-21|15|22
e|DV|0a566742-0f71-4603-85f0-875e2c3395e7|1|[?]|[?]|[?]|7|WASHOUT|2021-02-04|2021-02-12|37|45
e|DV|fdcd8f25-f7bd-477e-a7f6-4a279380d98f|1|[?]|[?]|[?]|6|TREATMENT|2020-06-14|2020-07-04|41|61
e|DV|48103500-0f3d-4108-9167-6afee1098773|1|[?]|[?]|[?]|7|SCREENING|2020-05-23|2020-06-09|18|35
e|DV|9855fc59-f162-48ba-8c51-e8c6c54b72f3|1|[?]|[?]|[?]|7|TREATMENT|2020-08-24|2020-09-30|40|77
e|DV|ceab42b0-3a7e-4aad-b599-5da311398148|1|[?]|[?]|[?]|7|TREATMENT|2020-09-04|2020-09-09|85|90
e|DV|c6fed210-d4a7-41f9-b3ff-ece262a91a5f|1|[?]|[?]|[?]|1|FOLLOW-UP|2020-07-05|2020-08-12|6|44
e|DV|6fdbc6f3-431d-48ca-b51b-992f2340b9f5|1|[?]|[?]|[?]|7|TREATMENT|2020-07-05|2020-08-26|5|57
e|DV|36a54b72-6368-460e-ab4c-952923e0fd14|1|[?]|[?]|[?]|5|SCREENING|2020-06-30|2020-07-02|56|58
e|DV|84e56692-9a33-472a-9ddc-545d3342da34|1|[?]|[?]|[?]|6|TREATMENT|2021-01-10|2021-03-08|32|89
e|DV|d917a86c-f13b-4ed8-aa0a-cc36ac57647e|1|[?]|[?]|[?]|5|TREATMENT|2020-06-28|2020-08-08|38|79
e|DV|917f909f-fd5d-47ad-9e2a-f7c6953cfbd1|1|[?]|[?]|[?]|4|WASHOUT|2020-06-12|2020-06-30|12|30
e|DV|ae0e05c1-3953-4406-bfae-299295c1fa4c|1|[?]|[?]|[?]|4|FOLLOW-UP|2021-01-04|2021-01-05|2|3
e|DV|7bbe20e7-3dcc-41ea-bba8-fc03ff83a28b|1|[?]|[?]|[?]|2|FOLLOW-UP|2021-01-08|2021-02-25|2|50
e|DV|ab09e76d-8bbf-4126-a60d-08d6b5292836|1|[?]|[?]|[?]|4|TREATMENT|2020-12-28|2021-01-15|13|31
e|DV|8b7e3909-4115-4736-b07a-e0b6c382aa7e|1|[?]|[?]|[?]|5|FOLLOW-UP|2020-07-04|2020-07-05|3|4
e|DV|187b2279-526f-4978-89d4-d2da56cc2257|1|[?]|[?]|[?]|3|TREATMENT|2020-06-25|2020-07-18|14|37
e|DV|53506a04-dedb-495b-8e35-0576cdf1b323|1|[?]|[?]|[?]|3|TREATMENT|2020-11-04|2021-01-05|7|69
e|DV|defa600c-4205-476e-a40c-690cb16769b3|1|[?]|[?]|[?]|7|WASHOUT|2021-01-24|2021-02-25|10|42
e|DV|e5092583-4259-40ba-a6a2-eeef6607263b|1|[?]|[?]|[?]|2|TREATMENT|2020-10-10|2020-10-23|34|47
e|DV|461196d1-1213-4e5f-9bac-71f097b6cfdb|1|[?]|[?]|[?]|3|TREATMENT|2020-12-14|2021-01-18|41|76
e|DV|4c82922a-55d0-45b9-a7bb-4edac32b0f68|1|[?]|[?]|[?]|7|TREATMENT|2021-01-11|2021-02-02|43|65
e|DV|57971bdc-14df-4d9e-a59a-2665703c12ab|1|[?]|[?]|[?]|7|TREATMENT|2020-06-17|2020-06-30|28|41
e|DV|dacea2da-9101-41e9-97aa-1cb8445b1320|1|[?]|[?]|[?]|1|TREATMENT|2020-10-10|2020-10-15|11|16
e|DV|cbf5d05e-e934-4946-b991-5fef63a01888|1|[?]|[?]|[?]|5|TREATMENT|2020-10-29|2020-11-10|2|14
e|DV|be18633c-0ff9-4775-9737-dc8a9524fd2c|1|[?]|[?]|[?]|1|SCREENING|2020-10-26|2020-12-02|18|55
e|DV|f7eba9b8-94fb-46b8-842a-0322eb68a355|1|[?]|[?]|[?]|3|TREATMENT|2020-05-08|2020-07-11|6|70
e|DV|903199e2-56e1-41e4-8904-d33cc6846ee3|1|[?]|[?]|[?]|5|SCREENING|2021-01-12|2021-03-03|4|54
e|DV|32567f8d-e746-44e1-a269-d95ba3bb0b11|1|[?]|[?]|[?]|7|TREATMENT|2020-11-18|2020-11-25|26|33
e|DV|ecdc54eb-c02f-4112-8e85-8a3352470b3b|1|[?]|[?]|[?]|3|FOLLOW-UP|2020-11-23|2020-11-25|22|24
e|DV|6885a3d0-5bd9-4f2f-a126-35b8030ad1b8|1|[?]|[?]|[?]|2|TREATMENT|2020-08-05|2020-09-02|37|65
e|DV|5d7241ec-120d-486d-ab39-b9e14ab4ce90|1|[?]|[?]|[?]|6|WASHOUT|2020-09-11|2020-09-15|51|55
e|DV|17fdb337-01e4-42ce-b3f0-1f4beeafc26c|1|[?]|[?]|[?]|6|WASHOUT|2020-07-01|2020-07-20|40|59
e|DV|8efc2f2c-fa89-4ceb-a43c-c77bc2ff6319|1|[?]|[?]|[?]|4|FOLLOW-UP|2020-08-06|2020-08-28|43|65
e|DV|a69c6182-9c35-4365-b732-b238e0584ba7|1|[?]|[?]|[?]|6|WASHOUT|2020-07-31|2020-08-07|3|10
e|DV|1b9896cf-160e-4a56-8737-9759cd83e784|1|[?]|[?]|[?]|5|TREATMENT|2020-12-11|2021-02-02|10|63
e|DV|ea87b553-e331-40cf-bd86-d2bd22694476|1|[?]|[?]|[?]|1|SCREENING|2020-08-02|2020-10-07|7|73
e|DV|7aebcf72-ac09-4814-ade2-0c0b2add2d8c|1|[?]|[?]|[?]|2|SCREENING|2020-07-24|2020-08-24|4|35
e|DV|051dc064-be6f-43eb-aa51-7ed8634d6e23|1|[?]|[?]|[?]|2|FOLLOW-UP|2020-07-09|2020-07-29|11|31
e|DV|9d85acbf-5a26-4bcd-aee8-e1ab2834a2f9|1|[?]|[?]|[?]|5|TREATMENT|2020-06-13|2020-06-17|20|24
e|DV|7a17fe21-b640-4bc5-bf19-b1bceb393dab|1|[?]|[?]|[?]|7|TREATMENT|2020-09-08|2020-09-11|16|19
e|DV|d2080dd2-03ad-4c43-be69-eeb8151cc9b5|1|[?]|[?]|[?]|6|TREATMENT|2021-01-29|2021-02-05|19|26
e|DV|f1d0daec-aa97-4838-9c53-e16dae3e17b2|1|[?]|[?]|[?]|3|TREATMENT|2020-07-13|2020-09-16|30|95
e|DV|835594ab-e93c-402b-8129-6af659be5ae1|1|[?]|[?]|[?]|1|TREATMENT|2020-12-20|2021-01-28|59|98
e|DV|c3c85786-d24b-4620-9ee0-c13b1cc4f951|1|[?]|[?]|[?]|1|TREATMENT|2020-11-15|2020-12-08|49|72
e|DV|5354e3c4-4106-4e4c-85c3-2dbbd001688c|1|[?]|[?]|[?]|7|WASHOUT|2020-12-20|2021-01-11|45|67
e|DV|f10e9188-ef7b-46f9-a80a-0669436eb4dd|1|[?]|[?]|[?]|4|FOLLOW-UP|2020-07-02|2020-07-20|18|36
e|DV|f5c49bb8-c1c4-42fc-a5a0-4a39d95604eb|1|[?]|[?]|[?]|5|TREATMENT|2020-08-06|2020-09-30|3|58
e|DV|000b5b99-a92d-4c84-9edc-ee08930d8a2e|1|[?]|[?]|[?]|5|SCREENING|2020-10-31|2020-11-05|26|31
e|DV|4f919ad0-fdb4-49d8-ba63-bb9e1680bca5|1|[?]|[?]|[?]|7|WASHOUT|2020-07-02|2020-07-31|41|70
e|DV|11b2b359-d4a1-411d-a676-075b26e1453c|1|[?]|[?]|[?]|4|WASHOUT|2020-11-07|2020-11-26|58|77
e|DV|293f673d-af6a-473e-8bce-118bb85bbd9e|1|[?]|[?]|[?]|6|SCREENING|2020-11-23|2020-12-17|45|69
e|DV|0f60ab31-ee13-4846-93d2-6bcac139006f|1|[?]|[?]|[?]|3|TREATMENT|2020-09-07|2020-09-15|77|85
e|DV|d49f37ce-2d6e-4ebb-91af-7ed32322f824|1|[?]|[?]|[?]|3|FOLLOW-UP|2020-08-29|2020-09-09|8|19
e|DV|76dd2fe2-bc9e-48e4-870c-af7ece70009a|1|[?]|[?]|[?]|1|FOLLOW-UP|2020-07-03|2020-07-11|7|15
e|DV|5ac0fe16-cde1-41ea-9948-0b79e72fd8ad|1|[?]|[?]|[?]|2|SCREENING|2020-12-10|2021-01-06|26|53
e|DV|78778706-6b5b-4ad8-90af-f56d602863ae|1|[?]|[?]|[?]|5|FOLLOW-UP|2020-06-27|2020-07-15|55|73
e|DV|a6954aa1-4860-412a-b988-7f708aca2ab2|1|[?]|[?]|[?]|5|FOLLOW-UP|2020-11-26|2020-12-07|80|91
e|DV|0a970eb4-f958-42ad-ad8b-60bb427c9cba|1|[?]|[?]|[?]|6|SCREENING|2020-07-26|2020-08-06|83|94
e|DV|dd6179f5-d2f5-4258-ac74-cf8e7a2d8673|1|[?]|[?]|[?]|1|TREATMENT|2021-01-22|2021-01-27|6|11
e|DV|fae58cd9-1ff0-47dc-9ecb-916fb9f4187b|1|[?]|[?]|[?]|4|FOLLOW-UP|2020-10-17|2020-11-02|64|80
e|DV|9b268a13-dc40-4eb6-8729-c131ac302dd3|1|[?]|[?]|[?]|5|TREATMENT|2020-05-14|2020-05-22|9|17
e|DV|fa11534a-92f9-4887-828b-25b7637b8f57|1|[?]|[?]|[?]|5|FOLLOW-UP|2020-12-13|2020-12-18|10|15
e|DV|f305f7a3-8c8b-4eca-afb2-4a376f811170|1|[?]|[?]|[?]|1|TREATMENT|2020-10-04|2020-11-08|10|45
e|DV|6e4ed6b3-e419-464c-a40e-f100a6894baa|1|[?]|[?]|[?]|3|TREATMENT|2020-06-29|2020-07-20|32|53
e|DV|1e5e6ccc-a4b2-4aec-8048-988d1708caf0|1|[?]|[?]|[?]|4|SCREENING|2020-09-05|2020-10-11|38|74
e|DV|5d25ac6d-428d-41eb-9549-c23df035a54e|1|[?]|[?]|[?]|2|TREATMENT|2020-05-05|2020-05-12|2|9
e|DV|7d7dde17-c060-4ad3-9821-6faa49ddd1b2|1|[?]|[?]|[?]|7|SCREENING|2020-12-11|2020-12-15|52|56
e|DV|173aea61-964d-4f4a-8d48-56a1a58de6d8|1|[?]|[?]|[?]|6|FOLLOW-UP|2020-10-19|2021-01-03|16|92
e|DV|45d1adb8-9b3b-4f06-87cb-740205448680|1|[?]|[?]|[?]|5|FOLLOW-UP|2020-07-22|2020-07-30|15|23
e|DV|7403ad67-7ed5-4716-a874-c360429845bc|1|[?]|[?]|[?]|7|WASHOUT|2020-06-15|2020-07-21|26|62
e|DV|8be919ce-34da-4e49-ac7a-3679c7af632d|1|[?]|[?]|[?]|1|FOLLOW-UP|2021-02-23|2021-03-09|51|65
e|DV|9c44967b-914e-43d5-be1e-6829804e04ab|1|[?]|[?]|[?]|3|WASHOUT|2021-01-16|2021-02-08|2|25
e|DV|36b6c36e-3cba-4d15-85e2-9f9bfc4c05e1|1|[?]|[?]|[?]|1|WASHOUT|2020-09-04|2020-10-06|45|77
e|DV|cad8c553-739f-4046-a898-d939eb286dba|1|[?]|[?]|[?]|1|TREATMENT|2020-06-08|2020-07-01|32|55
e|DV|0bd95d1b-a993-4ae6-9ed0-3e3256ee1648|1|[?]|[?]|[?]|2|TREATMENT|2020-09-10|2020-09-23|9|22
e|DV|81e934f8-7bcc-48d2-8d15-5270e51f2870|1|[?]|[?]|[?]|2|TREATMENT|2021-02-19|2021-02-22|36|39
e|DV|5713cabe-4d79-4f77-8ddc-daad1242a837|1|[?]|[?]|[?]|6|FOLLOW-UP|2020-10-18|2020-12-07|49|99
e|DV|414d20c7-8dc8-49ad-8ae9-f113b9610109|1|[?]|[?]|[?]|5|FOLLOW-UP|2020-08-17|2020-09-30|48|92
e|DV|21e16094-23bd-4d20-b5f8-10d45858160e|1|[?]|[?]|[?]|4|WASHOUT|2020-11-13|2020-11-20|67|74
e|DV|2346613e-6734-476a-a414-511606c2d753|1|[?]|[?]|[?]|4|SCREENING|2020-10-05|2020-10-17|23|35
e|DV|6a8bda83-1b5a-481e-af4f-77fe74bc37be|1|[?]|[?]|[?]|6|TREATMENT|2021-01-08|2021-02-08|53|84
e|DV|748ef401-3def-4674-8d5e-4a198709d672|1|[?]|[?]|[?]|1|SCREENING|2020-06-21|2020-07-16|23|48
e|DV|03c399c1-77b9-4879-a6e8-42ba58ca68d4|1|[?]|[?]|[?]|5|TREATMENT|2020-08-14|2020-08-20|40|46
e|DV|b8afdaf1-5c4d-408f-b8ba-381461f15bde|1|[?]|[?]|[?]|4|SCREENING|2020-12-24|2020-12-30|51|57
e|DV|8115d6e8-0908-4491-a82a-08f43ccf1f0d|1|[?]|[?]|[?]|7|TREATMENT|2020-11-29|2020-12-01|11|13
e|DV|fbd7ecb2-905f-40a9-babc-ebaf310cc372|1|[?]|[?]|[?]|1|FOLLOW-UP|2020-08-08|2020-09-02|49|74
e|DV|1a0e1a66-82dd-4945-9c9f-179fba9d781e|1|[?]|[?]|[?]|2|TREATMENT|2020-12-07|2020-12-12|8|13
e|DV|b3ab1879-3dc7-41fa-be53-f4484af21fbd|1|[?]|[?]|[?]|3|TREATMENT|2020-12-09|2020-12-11|30|32
e|DV|bc71ddfa-c71c-447b-9684-005e4c112172|1|[?]|[?]|[?]|7|FOLLOW-UP|2020-07-12|2020-09-24|11|85
e|DV|ed3ae3f4-892a-4e68-9f3d-e81b2f2e09c0|1|[?]|[?]|[?]|5|SCREENING|2020-12-04|2021-03-02|5|93
e|DV|88d03ea3-dc55-4fb5-9296-3b94037a1aa6|1|[?]|[?]|[?]|6|TREATMENT|2020-08-31|2020-09-05|4|9
e|DV|b1b3e113-8c73-4446-8095-3341f8912bd7|1|[?]|[?]|[?]|4|TREATMENT|2021-01-27|2021-01-28|10|11
e|DV|caed12ff-3dfa-42cd-95e8-9a3dfd10184d|1|[?]|[?]|[?]|7|SCREENING|2020-11-21|2020-12-16|9|34
e|DV|8ef3d6ea-49e3-4646-90ba-4b8b5b65e799|1|[?]|[?]|[?]|4|TREATMENT|2020-08-20|2020-09-04|24|39
e|DV|3b83c7a0-e22b-45b1-b065-71971f014039|1|[?]|[?]|[?]|7|WASHOUT|2020-08-26|2020-08-27|4|5
e|DV|92c849ce-12b8-4c38-baab-f91c44a007b9|1|[?]|[?]|[?]|1|TREATMENT|2020-11-05|2020-11-26|3|24
e|DV|f2101018-c983-435e-a453-148f182388f7|1|[?]|[?]|[?]|6|FOLLOW-UP|2020-08-24|2020-08-25|2|3
e|DV|613284eb-edbe-446b-b4fe-f96f1510e626|1|[?]|[?]|[?]|1|TREATMENT|2020-12-16|2021-01-05|49|69
e|DV|65e8391b-0c34-4687-a0ab-cb291a4cdf36|1|[?]|[?]|[?]|7|TREATMENT|2020-07-26|2020-09-16|21|73
e|DV|2350438a-0bc8-4da5-b6c9-99a6c012b454|1|[?]|[?]|[?]|6|TREATMENT|2020-08-26|2020-10-07|15|57
e|DV|ddfe1ae3-a8d4-4011-b2d0-753ef49d0bb8|1|[?]|[?]|[?]|1|TREATMENT|2020-11-25|2020-12-11|19|35
e|DV|416fe99b-1258-4e72-b1df-48b989f8f8ed|1|[?]|[?]|[?]|7|TREATMENT|2020-09-30|2020-11-23|43|97
e|DV|16a9e070-3e5d-444c-9ac1-6a1abfac0370|1|[?]|[?]|[?]|2|SCREENING|2020-06-07|2020-06-11|22|26
e|DV|1497a00d-55b1-4e02-a957-cf15e3d15512|1|[?]|[?]|[?]|4|TREATMENT|2021-01-18|2021-02-17|3|33
e|DV|9c188f41-b137-4d5a-bfbf-1783b1e0d3df|1|[?]|[?]|[?]|7|WASHOUT|2020-07-14|2020-09-30|3|81
e|DV|b5e44703-e5e2-43b8-af6b-b74af0ae3ede|1|[?]|[?]|[?]|2|SCREENING|2020-12-08|2021-01-27|9|59
e|DV|80f006d0-1a4f-4ee7-9492-3ab1f6d7caef|1|[?]|[?]|[?]|7|SCREENING|2020-12-20|2021-01-11|55|77
e|DV|8aa15baf-9164-4dc8-b7c2-30e435b9e6bd|1|[?]|[?]|[?]|3|WASHOUT|2020-05-20|2020-05-23|3|6
e|DV|2216086b-197e-4780-8e10-28123eb090c5|1|[?]|[?]|[?]|5|TREATMENT|2020-12-12|2021-02-08|10|68
e|DV|7280f69c-a0f4-48b5-b714-1e272193168c|1|[?]|[?]|[?]|3|FOLLOW-UP|2020-09-19|2020-10-02|41|54
e|DV|4ce0546d-d8d9-42cb-bf2a-8e002536dd65|1|[?]|[?]|[?]|3|FOLLOW-UP|2020-07-31|2020-09-03|9|43
e|DV|25c6812b-9200-4dc4-a954-6879183a2c54|1|[?]|[?]|[?]|4|TREATMENT|2021-01-22|2021-01-26|39|43
e|DV|10dca475-f364-42f3-9192-faf762832adf|1|[?]|[?]|[?]|5|SCREENING|2020-10-07|2020-10-19|22|34
e|DV|caf54095-56c3-428f-8342-ce45c6c9a287|1|[?]|[?]|[?]|6|TREATMENT|2021-02-24|2021-03-01|76|81
e|DV|f833ca56-d426-420b-a6d3-fedeabc02734|1|[?]|[?]|[?]|3|TREATMENT|2020-07-29|2020-08-24|49|75
e|DV|03c8e2c7-b70d-4d46-8064-c99370eab232|1|[?]|[?]|[?]|1|TREATMENT|2020-11-21|2020-11-23|2|4
e|DV|944617c7-c5e6-4e06-b114-499c3020dbbd|1|[?]|[?]|[?]|7|WASHOUT|2020-10-31|2020-11-27|19|46
e|DV|e4878c66-1e2b-49bb-838e-85139d160dd4|1|[?]|[?]|[?]|7|TREATMENT|2020-12-14|2021-01-04|64|85
e|DV|6873e227-baef-4d6e-8600-0bb61d60fe49|1|[?]|[?]|[?]|6|WASHOUT|2020-08-14|2020-08-27|79|92
e|DV|bad01879-9b97-4d9c-9eec-58871168bd57|1|[?]|[?]|[?]|6|TREATMENT|2020-10-10|2020-10-11|5|6
e|DV|10d97d12-b3e9-4e58-87a2-d0c81ceeac17|1|[?]|[?]|[?]|1|TREATMENT|2020-11-09|2020-12-07|14|42
e|DV|0df77775-6e65-4f77-9f8f-7faaa1471141|1|[?]|[?]|[?]|4|SCREENING|2020-08-17|2020-08-19|3|5
e|DV|adc5359a-f1d5-428b-97d8-fce67cfeeaea|1|[?]|[?]|[?]|7|TREATMENT|2020-09-03|2020-10-18|22|67
e|DV|cd68296c-95d4-489e-8b64-b2404f16316c|1|[?]|[?]|[?]|3|TREATMENT|2021-02-26|2021-03-10|78|90
e|DV|fe137506-d1ce-4b08-a043-9366d86c421e|1|[?]|[?]|[?]|1|TREATMENT|2020-06-25|2020-07-17|2|24
e|DV|b112c524-42c8-4e9e-8699-209e739972a7|1|[?]|[?]|[?]|4|FOLLOW-UP|2020-12-30|2021-01-13|6|20
e|DV|e6e32df8-8b66-49a5-a626-fd385297dd6f|1|[?]|[?]|[?]|4|WASHOUT|2020-10-02|2020-10-31|40|69
e|DV|4dbfcc27-dc5a-4f04-a104-0eeb83561ab9|1|[?]|[?]|[?]|3|TREATMENT|2020-09-17|2020-09-24|9|16
e|DV|5002de57-45df-4525-a6b7-b6cc33c22229|1|[?]|[?]|[?]|3|FOLLOW-UP|2021-01-10|2021-03-28|8|85
e|DV|298f2081-bb11-4856-9e88-4be3b9b2250d|1|[?]|[?]|[?]|2|TREATMENT|2020-10-01|2020-11-23|6|59
e|DV|7c864bb9-ff9d-4e5f-ae93-6e32ad859ac2|1|[?]|[?]|[?]|3|TREATMENT|2021-02-07|2021-03-16|50|87
e|DV|a9e7f609-df5e-4a99-bf27-2a90cb7deebb|1|[?]|[?]|[?]|3|WASHOUT|2020-05-06|2020-05-19|4|17
e|DV|18c21176-db5e-4650-a1af-beb2042c31d8|1|[?]|[?]|[?]|3|WASHOUT|2020-08-27|2020-08-29|7|9
e|DV|7808abd1-7d6f-4090-aa08-916a804c95f5|1|[?]|[?]|[?]|5|WASHOUT|2020-06-26|2020-07-29|16|49
e|DV|57553b78-e761-4577-aae2-5c693a2dc303|1|[?]|[?]|[?]|6|TREATMENT|2021-02-07|2021-03-02|47|70
e|DV|40883550-4627-4f92-974a-7eeb5bde74c5|1|[?]|[?]|[?]|4|TREATMENT|2020-10-05|2020-10-07|2|4
e|DV|4199b549-d021-4bfd-97e6-95630d407183|1|[?]|[?]|[?]|2|TREATMENT|2020-12-18|2020-12-22|26|30
e|DV|6366647f-62fa-48dc-9d77-1677fce62fc7|1|[?]|[?]|[?]|4|TREATMENT|2020-07-06|2020-07-09|2|5
e|DV|29fe31ae-bf22-4cfb-bdd3-f35ddf68cbc8|1|[?]|[?]|[?]|7|TREATMENT|2020-05-26|2020-05-30|23|27
e|DV|637d7d5f-78d3-47fb-b6dc-d877d92b9001|1|[?]|[?]|[?]|7|WASHOUT|2020-05-26|2020-06-22|2|29
e|DV|696cd04a-cde7-4481-b5e2-fad1877ec284|1|[?]|[?]|[?]|1|TREATMENT|2020-11-03|2020-11-18|74|89
e|DV|ce4699cb-66f1-4c13-8428-84064255b765|1|[?]|[?]|[?]|2|FOLLOW-UP|2020-12-14|2021-03-01|22|99
e|DV|015b391b-23c7-478d-b9d1-226d3cb9edcf|1|[?]|[?]|[?]|1|TREATMENT|2021-01-10|2021-01-11|52|53
e|DV|b510a277-c5ee-4a32-b111-b2dbc72c8a27|1|[?]|[?]|[?]|3|TREATMENT|2020-06-05|2020-07-01|8|34
e|DV|9e9acf6b-d29a-4c11-96d6-b580c721f462|1|[?]|[?]|[?]|5|TREATMENT|2020-09-22|2020-11-10|43|92
e|DV|da69b157-7dab-49c5-b8fb-bd312a21fcf0|1|[?]|[?]|[?]|7|FOLLOW-UP|2020-09-11|2020-09-16|65|70
e|DV|0e94ec23-3ef8-4a1f-b6e0-72ce49abba5d|1|[?]|[?]|[?]|3|WASHOUT|2020-06-28|2020-07-15|40|57
e|DV|77c97d1e-e223-4485-b2de-59daa4e5b01f|1|[?]|[?]|[?]|7|WASHOUT|2020-06-13|2020-07-06|4|27
e|DV|9ea26788-8e26-4cbf-9a5a-58cb49686fc6|1|[?]|[?]|[?]|6|SCREENING|2020-10-18|2020-12-26|14|83
e|DV|af049bb3-79a3-4a4c-8c2c-05d5b8c82967|1|[?]|[?]|[?]|7|FOLLOW-UP|2020-11-18|2020-11-20|27|29
e|DV|9eb6e591-d266-4e05-85b6-230e8a02d494|1|[?]|[?]|[?]|2|WASHOUT|2020-07-23|2020-07-27|35|39
e|DV|6a6e040d-6a09-4004-9fab-f4f82ba00eae|1|[?]|[?]|[?]|4|SCREENING|2020-07-13|2020-09-24|23|96
e|DV|5d4845ae-b8b5-4a5d-91b9-bfd391e7829e|1|[?]|[?]|[?]|4|TREATMENT|2020-10-13|2020-10-26|67|80
e|DV|6c7d2865-ecfa-40fc-aae1-3d1083bc7e40|1|[?]|[?]|[?]|5|FOLLOW-UP|2021-01-19|2021-04-01|10|82
e|DV|81eefadb-c9b5-49c5-8bc0-3d243fc67e23|1|[?]|[?]|[?]|7|FOLLOW-UP|2020-06-29|2020-07-17|58|76
e|DV|ba99022a-d398-4c60-828c-876f119459e1|1|[?]|[?]|[?]|3|FOLLOW-UP|2020-11-30|2020-12-13|9|22
e|DV|d713869e-061c-4e95-8a50-da2e1ec47b3c|1|[?]|[?]|[?]|3|SCREENING|2020-08-01|2020-08-31|66|96
e|DV|fcebb64c-e0e6-4f29-9c52-15fa91f60018|1|[?]|[?]|[?]|6|TREATMENT|2020-07-27|2020-08-27|26|57
e|DV|e443f82e-43a8-4710-bff4-fd2b2f4d512f|1|[?]|[?]|[?]|1|SCREENING|2020-12-25|2021-01-23|3|32
e|DV|d9f6cfa7-1321-4e08-bf1c-8a4cba4fc57d|1|[?]|[?]|[?]|7|TREATMENT|2020-08-25|2020-08-28|74|77
e|DV|8a2147b1-2deb-410e-a298-d028a5efc555|1|[?]|[?]|[?]|7|SCREENING|2020-11-22|2020-12-31|33|72
e|DV|033db3bf-17fb-4872-afdb-1eea3dac6d85|1|[?]|[?]|[?]|5|TREATMENT|2020-07-05|2020-08-30|10|66
e|DV|e6bd8fdb-3af0-41c3-a23a-912ccd0cfce5|1|[?]|[?]|[?]|2|SCREENING|2020-07-13|2020-09-07|34|90
e|DV|8dd493b7-a892-4cab-8f69-701471c51d99|1|[?]|[?]|[?]|1|TREATMENT|2021-01-17|2021-01-27|15|25
e|DV|a13bbcb3-2c6d-4de3-a3ee-f5651042a9fa|1|[?]|[?]|[?]|2|SCREENING|2020-12-27|2021-01-04|60|68
e|DV|a77d90cb-2f8e-49c7-aa09-ed432432ecc9|1|[?]|[?]|[?]|6|TREATMENT|2020-08-29|2020-09-02|4|8
e|DV|40319f6b-5d5f-41d2-b96e-6bc8443b85e3|1|[?]|[?]|[?]|2|WASHOUT|2020-12-15|2021-01-04|35|55
e|DV|b49ef90c-a17e-4554-9fa6-af72b4d56a06|1|[?]|[?]|[?]|7|WASHOUT|2020-12-31|2021-01-21|5|26
e|DV|df041193-ee4e-4835-8db9-5be9b832ded0|1|[?]|[?]|[?]|3|TREATMENT|2020-11-19|2021-02-13|4|90
e|DV|e41a4505-a5aa-4cac-895b-04fe85737ca9|1|[?]|[?]|[?]|1|WASHOUT|2021-03-07|2021-04-09|63|96
e|DV|64424aa7-ac36-4c85-bf35-44f8dca3ec4d|1|[?]|[?]|[?]|1|TREATMENT|2021-02-06|2021-03-09|32|63
e|DV|8d572dcc-917b-463d-b8f6-2e3e888c5fb6|1|[?]|[?]|[?]|4|TREATMENT|2021-01-03|2021-01-06|32|35
e|DV|5abbbb78-2eeb-4d21-85ac-f5d18294c603|1|[?]|[?]|[?]|2|FOLLOW-UP|2021-02-27|2021-03-05|43|49
e|DV|109fe46d-ac1f-47fe-8ecb-6049a577d38c|1|[?]|[?]|[?]|3|TREATMENT|2020-06-04|2020-07-26|25|77
e|DV|cdb18d0a-5fca-4437-9b6e-0e46b0930521|1|[?]|[?]|[?]|5|FOLLOW-UP|2020-08-26|2020-09-03|2|10
e|DV|e515b916-5d28-4236-8835-2ff43b498ab3|1|[?]|[?]|[?]|6|TREATMENT|2020-06-25|2020-07-21|43|69
e|DV|158af2a8-d447-45e5-8c58-3b950f1bd889|1|[?]|[?]|[?]|3|TREATMENT|2020-05-22|2020-07-23|2|64
e|DV|e9a930d5-ca57-4069-8251-c164273df082|1|[?]|[?]|[?]|4|TREATMENT|2020-06-05|2020-07-24|25|74
e|DV|e654e37e-1c95-4f25-83b1-9233186626c6|1|[?]|[?]|[?]|2|TREATMENT|2020-08-01|2020-09-04|7|41
e|DV|808ee0ac-e668-4e8e-aa0a-889476cbe631|1|[?]|[?]|[?]|2|SCREENING|2020-06-16|2020-09-16|7|99
