STUDYID|DOMAIN|USUBJID|VSSEQ|VSGRPID|VSSPID|VSTESTCD|VSTEST|VSCAT|VSSCAT|VSPOS|VSORRES|VSORRESU|VSSTRESC|VSSTRESN|VSSTRESU|VSSTAT|VSREASND|VSLOC|VSLAT|VSLOBXFL|VSBLFL|VSDRVFL|VSTOX|VSTOXGR|VSCLSIG|VISITNUM|VISIT|VISITDY|TAETORD|EPOCH|VSDTC|VSDY|VSTPT|VSTPTNUM|VSELTM|VSTPTREF|VSRFTDTC
TRIAL STUDY 134XCP|VS|28FBEC95-59B8-4821-BD7A-125E2C87D71C|1|||NECKCIR|NECK CIRCUMFERENCE|||SLING||IN|||IN|NOT DONE||ACUTE MARGINAL ARTERY|LEFT|Y|Y|N|||NA|1||38||BASELINE|1970-02-11||||1966-07-21||1960-10-25
TRIAL STUDY 134XCP|VS|28FBEC95-59B8-4821-BD7A-125E2C87D71C|2|||WEIGHT|WEIGHT|||LEFT LATERAL DECUBITUS||MET|||MMHG|NOT DONE||HEAD AND NECK|BILATERAL|NA|NA|U|||Y|1||38||BLINDED TREATMENT|1968-02-13||||1967-01-22||1960-06-07
TRIAL STUDY 134XCP|VS|28FBEC95-59B8-4821-BD7A-125E2C87D71C|1|||RESP|RESPIRATORY RATE|||REVERSE TRENDELENBURG||KCAL/DAY|||PA|NOT DONE||PANCREAS|RIGHT|NA|NA|U|||Y|2||58||INDUCTION TREATMENT|1972-11-26||||1968-11-02||1970-08-14
TRIAL STUDY 134XCP|VS|28FBEC95-59B8-4821-BD7A-125E2C87D71C|2|||WTHTPCTL|WEIGHT-FOR-HEIGHT PERCENTILE|||STANDING, BENT FORWARD||CMHG|||KG/M2|NOT DONE||POPLITEAL VEIN|LATERAL|NA|U|U|||Y|2||58||SCREENING|1968-12-26||||1961-09-16||1968-09-28
TRIAL STUDY 134XCP|VS|28FBEC95-59B8-4821-BD7A-125E2C87D71C|1|||FRMSIZE|BODY FRAME SIZE|||PRONE||WATT|||G|NOT DONE||POPLITEAL ARTERY ABOVE KNEE|LATERAL|U|Y|Y|||N|3||39||CONTINUATION TREATMENT|1963-06-08||||1969-09-07||1968-06-07
TRIAL STUDY 134XCP|VS|28FBEC95-59B8-4821-BD7A-125E2C87D71C|2|||WSTCIR|WAIST CIRCUMFERENCE|||SUPINE||BREATHS/MIN|||M2|NOT DONE||FLEXOR DIGITORUM BREVIS MUSCLE|BILATERAL|U|NA|U|||NA|3||39||RUN-IN|1966-01-14||||1965-02-20||1965-09-27
TRIAL STUDY 134XCP|VS|28FBEC95-59B8-4821-BD7A-125E2C87D71C|1|||CPLRFLT|CAPILLARY REFILL TIME|||DECUBITUS||MM|||M2|NOT DONE||THALAMUS|LATERAL|NA|N|Y|||N|4||88||CONTINUATION TREATMENT|1961-01-11||||1972-03-21||1964-09-04
TRIAL STUDY 134XCP|VS|28FBEC95-59B8-4821-BD7A-125E2C87D71C|2|||TRSKNF|TRICEPS SKINFOLD THICKNESS|||SEMI-RECUMBENT||LB|||C|NOT DONE||LIP|LATERAL|U|N|Y|||U|4||88||TREATMENT|1967-11-27||||1966-08-03||1970-07-23
TRIAL STUDY 134XCP|VS|28FBEC95-59B8-4821-BD7A-125E2C87D71C|1|||ULNARL|ULNAR LENGTH|||LATERAL DECUBITUS||BREATHS/MIN|||BEATS/MIN|NOT DONE||LEFT MAIN CORONARY ARTERY BODY|IPSILATERAL|Y|N|U|||N|5||7||WASHOUT|1967-07-19||||1973-06-11||1972-10-05
TRIAL STUDY 134XCP|VS|28FBEC95-59B8-4821-BD7A-125E2C87D71C|2|||WTAPCTL|WEIGHT-FOR-AGE PERCENTILE|||STANDING, BENT FORWARD||BEATS/MIN|||KG/M2|NOT DONE||CARPAL BONE|CONTRALATERAL|Y|N|NA|||NA|5||7||LONG-TERM FOLLOW-UP|1967-05-07||||1970-03-07||1973-02-06
TRIAL STUDY 134XCP|VS|312DF5BA-05C3-49B4-AEDF-DC5F794D12C1|1|||WTAPCTL|WEIGHT-FOR-AGE PERCENTILE|||TRENDELENBURG||MET|||CMHG|NOT DONE||DISTANT LYMPH NODE|LATERAL|Y|U|N|||N|1||38||BLINDED TREATMENT|1960-03-07||||1964-07-26||1969-01-06
TRIAL STUDY 134XCP|VS|312DF5BA-05C3-49B4-AEDF-DC5F794D12C1|2|||PULSE|PULSE RATE|||SITTING, LEGS DEPENDENT||G|||M|NOT DONE||ETHMOID BONE|LATERAL|Y|U|U|||U|1||38||BASELINE|1972-03-20||||1962-10-17||1972-03-09
TRIAL STUDY 134XCP|VS|312DF5BA-05C3-49B4-AEDF-DC5F794D12C1|1|||HIPCIR|HIP CIRCUMFERENCE|||PRONE||MMHG|||KG/M2|NOT DONE||METATARSAL BONE|IPSILATERAL|Y|Y|U|||N|2||58||SCREENING|1962-08-01||||1971-05-18||1963-05-01
TRIAL STUDY 134XCP|VS|312DF5BA-05C3-49B4-AEDF-DC5F794D12C1|2|||TEMPCB|CORE BODY TEMPERATURE|||SEMI-RECUMBENT||LB|||LB|NOT DONE||ANTERIOR INFERIOR CEREBELLAR ARTERY|RIGHT|Y|N|N|||U|2||58||INDUCTION TREATMENT|1960-08-11||||1968-11-29||1964-05-29
TRIAL STUDY 134XCP|VS|312DF5BA-05C3-49B4-AEDF-DC5F794D12C1|1|||INTP|INTERPRETATION|||LATERAL DECUBITUS||G|||K|NOT DONE||SUBCARINAL LYMPH NODE|RIGHT|U|NA|Y|||NA|3||39||RUN-IN|1969-10-14||||1962-10-01||1961-03-08
TRIAL STUDY 134XCP|VS|312DF5BA-05C3-49B4-AEDF-DC5F794D12C1|2|||HEIGHT|HEIGHT|||LEFT LATERAL DECUBITUS||RATIO|||G|NOT DONE||SACROILIAC JOINT|RIGHT|N|N|N|||Y|3||39||TREATMENT|1971-04-25||||1971-06-05||1961-09-18
TRIAL STUDY 134XCP|VS|312DF5BA-05C3-49B4-AEDF-DC5F794D12C1|1|||TRSKNF|TRICEPS SKINFOLD THICKNESS|||LATERAL DECUBITUS||C|||KG|NOT DONE||TENTORIUM CEREBELLI|RIGHT|U|Y|Y|||U|4||88||TREATMENT|1969-04-27||||1964-11-21||1969-08-12
TRIAL STUDY 134XCP|VS|312DF5BA-05C3-49B4-AEDF-DC5F794D12C1|2|||WTAPCTL|WEIGHT-FOR-AGE PERCENTILE|||SITTING, LEGS DEPENDENT||M|||BREATHS/MIN|NOT DONE||SUPRAPUBIC REGION|LEFT|Y|NA|NA|||N|4||88||OPEN LABEL TREATMENT|1966-12-08||||1971-07-30||1973-02-22
TRIAL STUDY 134XCP|VS|312DF5BA-05C3-49B4-AEDF-DC5F794D12C1|1|||WTHTPCTL|WEIGHT-FOR-HEIGHT PERCENTILE|||STANDING||KCAL/DAY|||BEATS/MIN|NOT DONE||SUBLINGUAL REGION|LEFT|Y|N|U|||N|5||7||OPEN LABEL TREATMENT|1962-05-19||||1960-02-16||1972-06-19
TRIAL STUDY 134XCP|VS|312DF5BA-05C3-49B4-AEDF-DC5F794D12C1|2|||BMR|BASAL METABOLIC RATE|||SLING||KCAL/DAY|||CMHG|NOT DONE||TARSUS BONE|IPSILATERAL|Y|N|NA|||N|5||7||WASHOUT|1963-05-01||||1962-03-14||1968-08-22
TRIAL STUDY 134XCP|VS|1117C221-3530-45CB-82B2-B831C4DAD86B|1|||TBW|TOTAL BODY WATER|||PRONE||KG/M2|||C|NOT DONE||MOTOR CORTEX|LEFT|NA|U|NA|||U|1||38||FOLLOW-UP|1964-05-17||||1971-02-07||1964-06-02
TRIAL STUDY 134XCP|VS|1117C221-3530-45CB-82B2-B831C4DAD86B|2|||FRMSIZE|BODY FRAME SIZE|||PRONE||MET|||C|NOT DONE||SALIVARY GLAND, SUBLINGUAL|RIGHT|U|U|U|||Y|1||38||FOLLOW-UP|1970-09-23||||1969-08-18||1965-04-11
TRIAL STUDY 134XCP|VS|1117C221-3530-45CB-82B2-B831C4DAD86B|1|||BMI|BODY MASS INDEX|||STANDING||BEATS/MIN|||BEATS/MIN|NOT DONE||LUNG, LEFT, INFERIOR LOBE, LATERAL BASAL SEGMENT|UNILATERAL|NA|Y|U|||U|2||58||OBSERVATION|1973-09-04||||1963-11-21||1961-03-26
TRIAL STUDY 134XCP|VS|1117C221-3530-45CB-82B2-B831C4DAD86B|2|||FTSAD|FETAL SAGITTAL ABDOMINAL DIAMETER|||SUPINE||MMHG|||KG/M2|NOT DONE||ENDOMETRIUM|LATERAL|U|N|U|||N|2||58||LONG-TERM FOLLOW-UP|1972-02-28||||1962-12-19||1970-08-02
TRIAL STUDY 134XCP|VS|1117C221-3530-45CB-82B2-B831C4DAD86B|1|||TBW|TOTAL BODY WATER|||STANDING, BENT FORWARD||MM|||G|NOT DONE||DELTOID MUSCLE|LEFT|U|NA|N|||U|3||39||OPEN LABEL TREATMENT|1965-11-20||||1967-11-13||1971-10-23
TRIAL STUDY 134XCP|VS|1117C221-3530-45CB-82B2-B831C4DAD86B|2|||WTAPCTL|WEIGHT-FOR-AGE PERCENTILE|||DECUBITUS||BREATHS/MIN|||KCAL/DAY|NOT DONE||ARTERY|CONTRALATERAL|U|U|Y|||N|3||39||WASHOUT|1961-08-03||||1963-12-07||1963-03-09
TRIAL STUDY 134XCP|VS|1117C221-3530-45CB-82B2-B831C4DAD86B|1|||SBPAPCTL|SYSTOLIC BP-FOR-AGE PERCENTILE|||STANDING||F|||M|NOT DONE||LIVER, CAUDATE LOBE|LATERAL|U|Y|U|||U|4||88||BASELINE|1965-01-19||||1969-04-13||1966-03-08
TRIAL STUDY 134XCP|VS|1117C221-3530-45CB-82B2-B831C4DAD86B|2|||BMI|BODY MASS INDEX|||RIGHT LATERAL DECUBITUS||LB|||CMHG|NOT DONE||LACRIMAL BONE|LATERAL|NA|NA|NA|||NA|4||88||OBSERVATION|1962-08-29||||1968-06-18||1961-05-29
TRIAL STUDY 134XCP|VS|1117C221-3530-45CB-82B2-B831C4DAD86B|1|||IDEALWT|IDEAL BODY WEIGHT|||LEFT LATERAL DECUBITUS||KG/M2|||C|NOT DONE||CARPOMETACARPAL JOINT 5|CONTRALATERAL|N|N|Y|||NA|5||7||INDUCTION TREATMENT|1973-02-08||||1969-12-29||1968-10-06
TRIAL STUDY 134XCP|VS|1117C221-3530-45CB-82B2-B831C4DAD86B|2|||PULSEPR|PULSE PRESSURE|||SLING||HZ|||M2|NOT DONE||TRAPEZOID BONE|RIGHT|Y|N|NA|||U|5||7||TREATMENT|1971-04-08||||1968-11-18||1962-12-28
TRIAL STUDY 134XCP|VS|3ACFF838-5B16-4898-9640-A60C85096F64|1|||EWEIGHT|ESTIMATED WEIGHT|||SLING||KG/M2|||C|NOT DONE||VERTEBRAL COLUMN|UNILATERAL|N|N|N|||NA|1||38||TREATMENT|1972-09-13||||1961-08-14||1972-09-13
TRIAL STUDY 134XCP|VS|3ACFF838-5B16-4898-9640-A60C85096F64|2|||TBW|TOTAL BODY WATER|||SEMI-RECUMBENT||BREATHS/MIN|||M2|NOT DONE||FOREHEAD|BILATERAL|N|Y|U|||U|1||38||WASHOUT|1967-05-15||||1960-06-27||1964-08-24
TRIAL STUDY 134XCP|VS|3ACFF838-5B16-4898-9640-A60C85096F64|1|||TEMPPB|PERIPHERAL BODY TEMPERATURE|||LATERAL DECUBITUS||%|||IN|NOT DONE||THIRD OBTUSE MARGINAL BRANCH ARTERY|CONTRALATERAL|NA|Y|NA|||NA|2||58||OBSERVATION|1960-11-30||||1967-02-07||1967-09-22
TRIAL STUDY 134XCP|VS|3ACFF838-5B16-4898-9640-A60C85096F64|2|||PULSEPR|PULSE PRESSURE|||SITTING, LEGS DEPENDENT||RATIO|||MMHG|NOT DONE||ASCENDING AORTA, SINUS OF VALSALVA|RIGHT|NA|Y|NA|||N|2||58||RUN-IN|1964-01-01||||1968-05-17||1968-03-30
TRIAL STUDY 134XCP|VS|3ACFF838-5B16-4898-9640-A60C85096F64|1|||BODLNGTH|BODY LENGTH|||LATERAL DECUBITUS||LB|||MET|NOT DONE||PUTAMEN|BILATERAL|NA|U|U|||N|3||39||LONG-TERM FOLLOW-UP|1964-05-19||||1971-09-09||1966-02-01
TRIAL STUDY 134XCP|VS|3ACFF838-5B16-4898-9640-A60C85096F64|2|||HEIGHT|HEIGHT|||SUPINE||M2|||CM|NOT DONE||AXIAL SKELETON|UNILATERAL|N|Y|Y|||Y|3||39||RUN-IN|1965-01-14||||1963-06-01||1968-06-02
TRIAL STUDY 134XCP|VS|3ACFF838-5B16-4898-9640-A60C85096F64|1|||MANDL|MANDIBULAR LENGTH|||SITTING, LEGS DEPENDENT||KG/M2|||K|NOT DONE||BONE MARROW|CONTRALATERAL|U|Y|U|||Y|4||88||BASELINE|1963-06-04||||1966-03-24||1962-05-24
TRIAL STUDY 134XCP|VS|3ACFF838-5B16-4898-9640-A60C85096F64|2|||CRWNHEEL|CROWN-TO-HEEL LENGTH|||STANDING, BENT FORWARD||LB|||MM|NOT DONE||FEMALE REPRODUCTIVE SYSTEM|IPSILATERAL|U|NA|N|||N|4||88||BASELINE|1972-07-29||||1967-09-10||1971-10-10
TRIAL STUDY 134XCP|VS|3ACFF838-5B16-4898-9640-A60C85096F64|1|||BODLNGTH|BODY LENGTH|||TRENDELENBURG||M|||BREATHS/MIN|NOT DONE||BLOOD|BILATERAL|Y|U|N|||U|5||7||SCREENING|1972-12-14||||1968-10-30||1966-11-27
TRIAL STUDY 134XCP|VS|3ACFF838-5B16-4898-9640-A60C85096F64|2|||MAP|MEAN ARTERIAL PRESSURE|||RIGHT LATERAL DECUBITUS||KG|||KCAL/DAY|NOT DONE||LARYNX|UNILATERAL|NA|NA|Y|||N|5||7||WASHOUT|1963-08-01||||1973-06-04||1973-05-23
TRIAL STUDY 134XCP|VS|308F422A-B02B-4C76-86E7-834AAC127FE3|1|||DBPAPCTL|DIASTOLIC BP-FOR-AGE PERCENTILE|||DECUBITUS||KG/M2|||KCAL/DAY|NOT DONE||RECTOVAGINAL SPACE|BILATERAL|N|N|U|||N|1||38||RUN-IN|1960-01-09||||1969-01-07||1966-06-30
TRIAL STUDY 134XCP|VS|308F422A-B02B-4C76-86E7-834AAC127FE3|2|||TEMPCB|CORE BODY TEMPERATURE|||FOWLERS||WATT|||C|NOT DONE||PERIPHERAL NERVE|CONTRALATERAL|U|U|NA|||NA|1||38||TREATMENT|1970-12-02||||1967-08-29||1973-07-13
TRIAL STUDY 134XCP|VS|308F422A-B02B-4C76-86E7-834AAC127FE3|1|||WSTCIR|WAIST CIRCUMFERENCE|||PRONE||CMHG|||F|NOT DONE||INTERPHALANGEAL JOINT OF THE HAND|RIGHT|N|Y|N|||Y|2||58||SCREENING|1964-03-20||||1960-08-13||1966-05-03
TRIAL STUDY 134XCP|VS|308F422A-B02B-4C76-86E7-834AAC127FE3|2|||HIPCIR|HIP CIRCUMFERENCE|||LATERAL DECUBITUS||HZ|||M2|NOT DONE||FACIAL BONE|LEFT|Y|NA|U|||Y|2||58||TREATMENT|1967-01-04||||1965-01-25||1967-12-20
TRIAL STUDY 134XCP|VS|308F422A-B02B-4C76-86E7-834AAC127FE3|1|||TEMP|TEMPERATURE|||SITTING||HZ|||K|NOT DONE||KIDNEY, UPPER LOBE|RIGHT|N|N|U|||NA|3||39||TREATMENT|1967-02-21||||1961-03-10||1962-08-31
TRIAL STUDY 134XCP|VS|308F422A-B02B-4C76-86E7-834AAC127FE3|2|||DBPAPCTL|DIASTOLIC BP-FOR-AGE PERCENTILE|||STANDING, BENT FORWARD||RATIO|||CM|NOT DONE||GLENOID FOSSA|BILATERAL|NA|U|NA|||NA|3||39||LONG-TERM FOLLOW-UP|1970-11-04||||1968-12-30||1969-02-15
TRIAL STUDY 134XCP|VS|308F422A-B02B-4C76-86E7-834AAC127FE3|1|||MAXPREHR|MAXIMUM PREDICTED HEART RATE|||TRENDELENBURG||C|||HZ|NOT DONE||BRACHIAL PLEXUS|LATERAL|NA|Y|NA|||U|4||88||FOLLOW-UP|1972-03-15||||1969-12-08||1963-04-18
TRIAL STUDY 134XCP|VS|308F422A-B02B-4C76-86E7-834AAC127FE3|2|||FTHDCIRC|FETAL HEAD CIRCUMFERENCE|||DECUBITUS||LB|||F|NOT DONE||SOLEUS MUSCLE|IPSILATERAL|Y|N|Y|||U|4||88||WASHOUT|1971-02-27||||1963-02-15||1970-12-27
TRIAL STUDY 134XCP|VS|308F422A-B02B-4C76-86E7-834AAC127FE3|1|||ABSKNF|ABDOMINAL SKINFOLD THICKNESS|||FOWLERS||%|||F|NOT DONE||CERVICAL SPINE|CONTRALATERAL|Y|N|NA|||N|5||7||BLINDED TREATMENT|1968-08-31||||1963-05-16||1970-01-28
TRIAL STUDY 134XCP|VS|308F422A-B02B-4C76-86E7-834AAC127FE3|2|||BODLNGTH|BODY LENGTH|||TRENDELENBURG||RATIO|||M|NOT DONE||CARPOMETACARPAL JOINT|RIGHT|NA|Y|N|||Y|5||7||INDUCTION TREATMENT|1968-03-09||||1960-11-27||1966-05-11
TRIAL STUDY 134XCP|VS|34A3AA01-3595-42C2-95C3-44E3AF77B28D|1|||BODLNGTH|BODY LENGTH|||LEFT LATERAL DECUBITUS||IN|||C|NOT DONE||MAXILLA|UNILATERAL|N|Y|U|||U|1||38||BASELINE|1961-01-16||||1967-09-17||1968-09-21
TRIAL STUDY 134XCP|VS|34A3AA01-3595-42C2-95C3-44E3AF77B28D|2|||SSSKNF|SUBSCAPULAR SKINFOLD THICKNESS|||FOWLERS||KG|||MET|NOT DONE||LATERAL SECOND OBTUSE MARGINAL BRANCH ARTERY|BILATERAL|NA|N|N|||N|1||38||WASHOUT|1967-04-19||||1968-06-26||1962-12-07
TRIAL STUDY 134XCP|VS|34A3AA01-3595-42C2-95C3-44E3AF77B28D|1|||MUARMCIR|MID-UPPER ARM CIRCUMFERENCE|||SITTING, LEGS DEPENDENT||F|||WATT|NOT DONE||PARAVERTEBRAL GANGLIA|RIGHT|Y|U|U|||U|2||58||INDUCTION TREATMENT|1970-09-25||||1968-11-10||1965-01-30
TRIAL STUDY 134XCP|VS|34A3AA01-3595-42C2-95C3-44E3AF77B28D|2|||BMIAPCTL|BMI-FOR-AGE PERCENTILE|||UNCONSTRAINED||BEATS/MIN|||KG/M2|NOT DONE||FEMORAL HEAD|CONTRALATERAL|U|Y|Y|||U|2||58||LONG-TERM FOLLOW-UP|1970-02-10||||1963-06-24||1962-01-27
TRIAL STUDY 134XCP|VS|34A3AA01-3595-42C2-95C3-44E3AF77B28D|1|||MAXPREHR|MAXIMUM PREDICTED HEART RATE|||FOWLERS||C|||M2|NOT DONE||PRONATOR TERES MUSCLE|LEFT|NA|U|Y|||Y|3||39||OBSERVATION|1964-10-14||||1972-11-28||1968-10-06
TRIAL STUDY 134XCP|VS|34A3AA01-3595-42C2-95C3-44E3AF77B28D|2|||FARMCIR|FOREARM CIRCUMFERENCE|||UNCONSTRAINED||G|||WATT|NOT DONE||PROXIMAL INTERPHALANGEAL JOINT 2 OF THE FOOT|CONTRALATERAL|N|N|N|||U|3||39||BLINDED TREATMENT|1963-01-23||||1968-06-13||1963-05-17
TRIAL STUDY 134XCP|VS|34A3AA01-3595-42C2-95C3-44E3AF77B28D|1|||FTMANDL|FETAL MANDIBULAR LENGTH|||TRENDELENBURG||M2|||IN|NOT DONE||RETROAURICULAR LYMPH NODE|RIGHT|NA|NA|NA|||U|4||88||WASHOUT|1961-01-20||||1971-10-25||1969-03-21
TRIAL STUDY 134XCP|VS|34A3AA01-3595-42C2-95C3-44E3AF77B28D|2|||TEMP|TEMPERATURE|||SITTING, LEGS DEPENDENT||KCAL/DAY|||%|NOT DONE||INTERPHALANGEAL JOINT 2 OF THE HAND|UNILATERAL|U|N|Y|||U|4||88||RUN-IN|1962-07-02||||1961-07-13||1965-10-23
TRIAL STUDY 134XCP|VS|34A3AA01-3595-42C2-95C3-44E3AF77B28D|1|||LBM|LEAN BODY MASS|||FOWLERS||C|||F|NOT DONE||AORTIC VALVE ANNULUS|RIGHT|NA|NA|N|||NA|5||7||LONG-TERM FOLLOW-UP|1962-01-10||||1961-07-25||1962-08-23
TRIAL STUDY 134XCP|VS|34A3AA01-3595-42C2-95C3-44E3AF77B28D|2|||FTSAD|FETAL SAGITTAL ABDOMINAL DIAMETER|||SEMI-FOWLERS||BREATHS/MIN|||MMHG|NOT DONE||POPLITEAL VEIN|IPSILATERAL|N|U|U|||NA|5||7||CONTINUATION TREATMENT|1964-03-06||||1968-09-30||1964-03-21
TRIAL STUDY 134XCP|VS|05A82CB3-4A6B-42B9-9B5F-7D48C263EC70|1|||FTHR|FETAL HEART RATE|||RIGHT LATERAL DECUBITUS||%|||F|NOT DONE||HAMSTRING MUSCLE|CONTRALATERAL|U|NA|N|||Y|1||38||FOLLOW-UP|1962-08-05||||1969-10-01||1960-10-29
TRIAL STUDY 134XCP|VS|05A82CB3-4A6B-42B9-9B5F-7D48C263EC70|2|||FTEWT|FETAL ESTIMATED WEIGHT|||STANDING, BENT FORWARD||G|||CMHG|NOT DONE||ELBOW EXTENSOR MUSCLES|CONTRALATERAL|Y|N|Y|||NA|1||38||WASHOUT|1964-05-13||||1967-02-27||1960-07-22
TRIAL STUDY 134XCP|VS|05A82CB3-4A6B-42B9-9B5F-7D48C263EC70|1|||EWEIGHT|ESTIMATED WEIGHT|||LATERAL DECUBITUS||WATT|||MM|NOT DONE||THORAX|LEFT|U|N|NA|||NA|2||58||SCREENING|1971-06-24||||1964-07-18||1967-02-02
TRIAL STUDY 134XCP|VS|05A82CB3-4A6B-42B9-9B5F-7D48C263EC70|2|||OXYSAT|OXYGEN SATURATION|||RIGHT LATERAL DECUBITUS||BREATHS/MIN|||KCAL/DAY|NOT DONE||HEEL OF THE HAND|RIGHT|N|NA|U|||Y|2||58||SCREENING|1968-07-22||||1973-02-11||1964-03-06
TRIAL STUDY 134XCP|VS|05A82CB3-4A6B-42B9-9B5F-7D48C263EC70|1|||OXYSAT|OXYGEN SATURATION|||UNCONSTRAINED||C|||KG/M2|NOT DONE||HAIR ROOT|LEFT|Y|Y|NA|||U|3||39||OBSERVATION|1968-06-05||||1963-05-05||1967-03-24
TRIAL STUDY 134XCP|VS|05A82CB3-4A6B-42B9-9B5F-7D48C263EC70|2|||SYSBP|SYSTOLIC BLOOD PRESSURE|||LATERAL DECUBITUS||CM|||M|NOT DONE||PRONATOR QUADRATUS MUSCLE|BILATERAL|Y|NA|N|||Y|3||39||TREATMENT|1967-09-10||||1965-08-24||1961-01-19
TRIAL STUDY 134XCP|VS|05A82CB3-4A6B-42B9-9B5F-7D48C263EC70|1|||TEMPPB|PERIPHERAL BODY TEMPERATURE|||STANDING||RATIO|||K|NOT DONE||ABDUCTOR POLLICIS BREVIS MUSCLE|UNILATERAL|U|NA|Y|||N|4||88||TREATMENT|1960-07-27||||1969-11-29||1968-01-11
TRIAL STUDY 134XCP|VS|05A82CB3-4A6B-42B9-9B5F-7D48C263EC70|2|||PULSEPR|PULSE PRESSURE|||SUPINE||M|||BEATS/MIN|NOT DONE||PROXIMAL INTERPHALANGEAL JOINT 2 OF THE FOOT|UNILATERAL|NA|U|U|||Y|4||88||WASHOUT|1969-01-30||||1962-04-18||1970-09-24
TRIAL STUDY 134XCP|VS|05A82CB3-4A6B-42B9-9B5F-7D48C263EC70|1|||TRSKNF|TRICEPS SKINFOLD THICKNESS|||SITTING||RATIO|||MM|NOT DONE||RIB 3|LEFT|U|NA|U|||NA|5||7||FOLLOW-UP|1972-11-14||||1964-02-23||1972-07-11
TRIAL STUDY 134XCP|VS|05A82CB3-4A6B-42B9-9B5F-7D48C263EC70|2|||MAXPREHR|MAXIMUM PREDICTED HEART RATE|||SEMI-FOWLERS||CM|||CM|NOT DONE||PULMONARY VALVE, ANTERIOR CUSP|CONTRALATERAL|N|Y|Y|||Y|5||7||INDUCTION TREATMENT|1960-03-12||||1965-10-17||1969-03-16
TRIAL STUDY 134XCP|VS|85B73C68-6C9D-4E57-A8E1-E2221AE61E30|1|||SBPAPCTL|SYSTOLIC BP-FOR-AGE PERCENTILE|||LATERAL DECUBITUS||M2|||F|NOT DONE||POSTERIOR TIBIAL ARTERY|BILATERAL|Y|U|Y|||NA|1||38||LONG-TERM FOLLOW-UP|1972-08-27||||1973-02-15||1964-10-29
TRIAL STUDY 134XCP|VS|85B73C68-6C9D-4E57-A8E1-E2221AE61E30|2|||ULNARL|ULNAR LENGTH|||STANDING, BENT FORWARD||G|||K|NOT DONE||LEFT VENTRICULAR MID ANTEROLATERAL SEGMENT|RIGHT|U|N|N|||NA|1||38||OBSERVATION|1969-08-14||||1966-02-11||1968-01-01
TRIAL STUDY 134XCP|VS|85B73C68-6C9D-4E57-A8E1-E2221AE61E30|1|||CHESTCIR|CHEST CIRCUMFERENCE|||DECUBITUS||G|||RATIO|NOT DONE||EPICONDYLE|BILATERAL|N|N|NA|||U|2||58||OPEN LABEL TREATMENT|1970-02-21||||1971-04-08||1969-01-09
TRIAL STUDY 134XCP|VS|85B73C68-6C9D-4E57-A8E1-E2221AE61E30|2|||TEMP|TEMPERATURE|||TRENDELENBURG||MM|||PA|NOT DONE||SKIN OF THE FOOT|UNILATERAL|N|NA|U|||NA|2||58||OPEN LABEL TREATMENT|1972-04-23||||1972-09-19||1967-12-21
TRIAL STUDY 134XCP|VS|85B73C68-6C9D-4E57-A8E1-E2221AE61E30|1|||IDEALWT|IDEAL BODY WEIGHT|||SEMI-RECUMBENT||K|||G|NOT DONE||LUNG, RIGHT, MIDDLE LOBE, LATERAL SEGMENT|IPSILATERAL|Y|NA|N|||N|3||39||OBSERVATION|1964-08-10||||1964-09-08||1966-06-22
TRIAL STUDY 134XCP|VS|85B73C68-6C9D-4E57-A8E1-E2221AE61E30|2|||FTMANDL|FETAL MANDIBULAR LENGTH|||SLING||RATIO|||LB|NOT DONE||RETROAURICULAR LYMPH NODE|CONTRALATERAL|U|NA|Y|||NA|3||39||BLINDED TREATMENT|1966-10-20||||1964-03-02||1972-06-29
TRIAL STUDY 134XCP|VS|85B73C68-6C9D-4E57-A8E1-E2221AE61E30|1|||LBM|LEAN BODY MASS|||LATERAL DECUBITUS||LB|||F|NOT DONE||LIP, LOWER|CONTRALATERAL|N|Y|U|||Y|4||88||LONG-TERM FOLLOW-UP|1960-05-22||||1965-05-11||1967-02-25
TRIAL STUDY 134XCP|VS|85B73C68-6C9D-4E57-A8E1-E2221AE61E30|2|||TEMP|TEMPERATURE|||RIGHT LATERAL DECUBITUS||C|||M|NOT DONE||CUBOID BONE|UNILATERAL|NA|U|N|||N|4||88||BLINDED TREATMENT|1964-09-11||||1972-03-09||1962-04-23
TRIAL STUDY 134XCP|VS|85B73C68-6C9D-4E57-A8E1-E2221AE61E30|1|||SSSKNF|SUBSCAPULAR SKINFOLD THICKNESS|||SEMI-RECUMBENT||M|||MM|NOT DONE||FIRST DORSAL INTEROSSEOUS MUSCLE OF THE FOOT|RIGHT|N|Y|U|||N|5||7||SCREENING|1962-04-21||||1962-03-26||1969-07-28
TRIAL STUDY 134XCP|VS|85B73C68-6C9D-4E57-A8E1-E2221AE61E30|2|||SBPHPCTL|SYSTOLIC BP-FOR-HEIGHT PERCENTILE|||PRONE||WATT|||M|NOT DONE||LATERAL SECOND DIAGONAL BRANCH ARTERY|LEFT|Y|Y|NA|||N|5||7||OBSERVATION|1973-02-09||||1967-04-05||1964-04-20
TRIAL STUDY 134XCP|VS|ECA054C6-EA0F-4D7B-905C-849EA4592624|1|||BSA|BODY SURFACE AREA|||STANDING, BENT FORWARD||%|||C|NOT DONE||BLADDER|CONTRALATERAL|N|NA|Y|||NA|1||38||OPEN LABEL TREATMENT|1960-10-16||||1963-07-04||1967-11-07
TRIAL STUDY 134XCP|VS|ECA054C6-EA0F-4D7B-905C-849EA4592624|2|||MAP|MEAN ARTERIAL PRESSURE|||DECUBITUS||HZ|||MM|NOT DONE||COMMON ILIAC ARTERY|IPSILATERAL|NA|N|N|||Y|1||38||TREATMENT|1971-06-30||||1963-03-11||1965-10-19
TRIAL STUDY 134XCP|VS|ECA054C6-EA0F-4D7B-905C-849EA4592624|1|||ABSKNF|ABDOMINAL SKINFOLD THICKNESS|||STANDING, BENT FORWARD||KG|||CM|NOT DONE||EXTERNAL ILIAC LYMPH NODE|LATERAL|N|NA|NA|||U|2||58||FOLLOW-UP|1966-09-01||||1962-10-31||1961-02-23
TRIAL STUDY 134XCP|VS|ECA054C6-EA0F-4D7B-905C-849EA4592624|2|||PULSE|PULSE RATE|||STANDING, BENT FORWARD||BREATHS/MIN|||HZ|NOT DONE||DIGIT|CONTRALATERAL|N|Y|U|||U|2||58||LONG-TERM FOLLOW-UP|1965-04-17||||1973-05-15||1965-04-20
TRIAL STUDY 134XCP|VS|ECA054C6-EA0F-4D7B-905C-849EA4592624|1|||FIO2|FRACTION OF INSPIRED OXYGEN|||FOWLERS||KG/M2|||KCAL/DAY|NOT DONE||SEBACEOUS GLAND|BILATERAL|N|N|NA|||NA|3||39||CONTINUATION TREATMENT|1968-11-27||||1966-04-11||1968-11-23
TRIAL STUDY 134XCP|VS|ECA054C6-EA0F-4D7B-905C-849EA4592624|2|||MAP|MEAN ARTERIAL PRESSURE|||SITTING, LEGS DEPENDENT||F|||K|NOT DONE||MID-LAD ARTERY|CONTRALATERAL|N|N|U|||NA|3||39||OBSERVATION|1972-05-07||||1966-04-10||1962-09-04
TRIAL STUDY 134XCP|VS|ECA054C6-EA0F-4D7B-905C-849EA4592624|1|||WSTCIR|WAIST CIRCUMFERENCE|||TRENDELENBURG||M|||M|NOT DONE||MAMMARY GLAND|UNILATERAL|N|N|Y|||N|4||88||OPEN LABEL TREATMENT|1972-05-11||||1960-08-19||1966-01-07
TRIAL STUDY 134XCP|VS|ECA054C6-EA0F-4D7B-905C-849EA4592624|2|||DBPAPCTL|DIASTOLIC BP-FOR-AGE PERCENTILE|||DECUBITUS||RATIO|||M2|NOT DONE||WAIST|RIGHT|N|N|N|||N|4||88||CONTINUATION TREATMENT|1961-04-07||||1969-02-05||1970-09-11
TRIAL STUDY 134XCP|VS|ECA054C6-EA0F-4D7B-905C-849EA4592624|1|||DIABP|DIASTOLIC BLOOD PRESSURE|||UNCONSTRAINED||F|||CMHG|NOT DONE||PROXIMAL INTERPHALANGEAL JOINT 2|CONTRALATERAL|NA|U|NA|||Y|5||7||CONTINUATION TREATMENT|1961-07-08||||1960-08-20||1972-09-21
TRIAL STUDY 134XCP|VS|ECA054C6-EA0F-4D7B-905C-849EA4592624|2|||WTHTPCTL|WEIGHT-FOR-HEIGHT PERCENTILE|||RIGHT LATERAL DECUBITUS||BREATHS/MIN|||KG/M2|NOT DONE||ORBICULARIS OCULI MUSCLE|CONTRALATERAL|Y|Y|U|||Y|5||7||BASELINE|1963-03-25||||1968-05-13||1962-08-17
TRIAL STUDY 134XCP|VS|83823CA3-1C1D-455E-BE49-DC5E3651A939|1|||ENRGEXP|ENERGY EXPENDITURE|||STANDING, BENT FORWARD||K|||BREATHS/MIN|NOT DONE||PONS VAROLII|CONTRALATERAL|N|N|Y|||NA|1||38||SCREENING|1963-04-21||||1965-02-09||1969-07-07
TRIAL STUDY 134XCP|VS|83823CA3-1C1D-455E-BE49-DC5E3651A939|2|||CRWNHEEL|CROWN-TO-HEEL LENGTH|||PRONE||%|||LB|NOT DONE||ADDUCTOR POLLICIS MUSCLE|UNILATERAL|NA|U|N|||N|1||38||LONG-TERM FOLLOW-UP|1960-04-27||||1972-04-09||1961-11-10
TRIAL STUDY 134XCP|VS|83823CA3-1C1D-455E-BE49-DC5E3651A939|1|||RESP|RESPIRATORY RATE|||SEMI-FOWLERS||MET|||%|NOT DONE||EPITROCHLEAR LYMPH NODE|IPSILATERAL|U|N|Y|||Y|2||58||OPEN LABEL TREATMENT|1960-07-27||||1972-02-28||1967-07-08
TRIAL STUDY 134XCP|VS|83823CA3-1C1D-455E-BE49-DC5E3651A939|2|||NECKCIR|NECK CIRCUMFERENCE|||SEMI-RECUMBENT||G|||MET|NOT DONE||LATERAL RAMUS INTERMEDIUS ARTERY|RIGHT|Y|U|NA|||U|2||58||TREATMENT|1965-02-21||||1970-06-18||1968-10-02
TRIAL STUDY 134XCP|VS|83823CA3-1C1D-455E-BE49-DC5E3651A939|1|||INTP|INTERPRETATION|||UNCONSTRAINED||CM|||WATT|NOT DONE||PROXIMAL INTERPHALANGEAL JOINT 3 OF THE FOOT|LATERAL|Y|Y|N|||N|3||39||INDUCTION TREATMENT|1965-10-24||||1972-12-13||1966-09-15
TRIAL STUDY 134XCP|VS|83823CA3-1C1D-455E-BE49-DC5E3651A939|2|||INTP|INTERPRETATION|||TRENDELENBURG||KG|||C|NOT DONE||MIDDLE PHALANX 5 OF THE HAND|LEFT|Y|N|NA|||N|3||39||LONG-TERM FOLLOW-UP|1972-02-08||||1972-04-20||1968-04-10
TRIAL STUDY 134XCP|VS|83823CA3-1C1D-455E-BE49-DC5E3651A939|1|||FTHDCIRC|FETAL HEAD CIRCUMFERENCE|||LEFT LATERAL DECUBITUS||IN|||G|NOT DONE||OVARY|LEFT|U|Y|U|||U|4||88||INDUCTION TREATMENT|1966-11-20||||1969-04-12||1969-11-28
TRIAL STUDY 134XCP|VS|83823CA3-1C1D-455E-BE49-DC5E3651A939|2|||HEIGHT|HEIGHT|||SITTING, LEGS DEPENDENT||KCAL/DAY|||KCAL/DAY|NOT DONE||ILEUM WALL|BILATERAL|U|NA|N|||NA|4||88||BLINDED TREATMENT|1967-02-17||||1972-04-26||1973-09-05
TRIAL STUDY 134XCP|VS|83823CA3-1C1D-455E-BE49-DC5E3651A939|1|||DBPAPCTL|DIASTOLIC BP-FOR-AGE PERCENTILE|||LEFT LATERAL DECUBITUS||PA|||LB|NOT DONE||PROXIMAL INTERPHALANGEAL JOINT 2|BILATERAL|N|N|N|||N|5||7||LONG-TERM FOLLOW-UP|1963-09-18||||1971-05-25||1966-04-18
TRIAL STUDY 134XCP|VS|83823CA3-1C1D-455E-BE49-DC5E3651A939|2|||OXYSAT|OXYGEN SATURATION|||STANDING||M|||G|NOT DONE||PANCREATIC DUCT|LATERAL|NA|NA|Y|||NA|5||7||SCREENING|1971-05-12||||1968-06-13||1969-05-14
TRIAL STUDY 134XCP|VS|C04E8E9E-71C7-4595-AD9D-01A86B1AC5BB|1|||FRMSIZE|BODY FRAME SIZE|||FOWLERS||MMHG|||MMHG|NOT DONE||METATARSAL BONE|LATERAL|Y|N|U|||Y|1||38||BASELINE|1961-04-07||||1965-11-26||1973-05-16
TRIAL STUDY 134XCP|VS|C04E8E9E-71C7-4595-AD9D-01A86B1AC5BB|2|||FTHR|FETAL HEART RATE|||SLING||M|||BEATS/MIN|NOT DONE||INTERPHALANGEAL JOINT 1|IPSILATERAL|Y|Y|U|||U|1||38||RUN-IN|1970-03-03||||1966-10-21||1970-02-26
TRIAL STUDY 134XCP|VS|C04E8E9E-71C7-4595-AD9D-01A86B1AC5BB|1|||WAISTHIP|WAIST TO HIP RATIO|||LATERAL DECUBITUS||WATT|||CM|NOT DONE||SCAPHOID BONE|IPSILATERAL|N|N|NA|||Y|2||58||LONG-TERM FOLLOW-UP|1970-04-24||||1971-06-12||1962-04-09
TRIAL STUDY 134XCP|VS|C04E8E9E-71C7-4595-AD9D-01A86B1AC5BB|2|||WAISTHIP|WAIST TO HIP RATIO|||SITTING, LEGS DEPENDENT||IN|||LB|NOT DONE||SPLENIC VEIN|LEFT|N|U|U|||N|2||58||INDUCTION TREATMENT|1961-02-13||||1965-11-27||1971-01-15
TRIAL STUDY 134XCP|VS|C04E8E9E-71C7-4595-AD9D-01A86B1AC5BB|1|||FARMCIR|FOREARM CIRCUMFERENCE|||STANDING, BENT FORWARD||CM|||PA|NOT DONE||PHARYNGEAL TONSIL|UNILATERAL|U|Y|NA|||N|3||39||OBSERVATION|1964-04-28||||1970-12-22||1972-08-26
TRIAL STUDY 134XCP|VS|C04E8E9E-71C7-4595-AD9D-01A86B1AC5BB|2|||OXYSAT|OXYGEN SATURATION|||TRENDELENBURG||CMHG|||CM|NOT DONE||MIDBRAIN|LATERAL|U|Y|NA|||NA|3||39||CONTINUATION TREATMENT|1970-02-11||||1962-10-01||1963-02-24
TRIAL STUDY 134XCP|VS|C04E8E9E-71C7-4595-AD9D-01A86B1AC5BB|1|||FTEWT|FETAL ESTIMATED WEIGHT|||LEFT LATERAL DECUBITUS||%|||MM|NOT DONE||GONAD|CONTRALATERAL|N|N|N|||N|4||88||OPEN LABEL TREATMENT|1971-07-16||||1960-11-05||1969-07-25
TRIAL STUDY 134XCP|VS|C04E8E9E-71C7-4595-AD9D-01A86B1AC5BB|2|||FTHDCIRC|FETAL HEAD CIRCUMFERENCE|||SLING||KCAL/DAY|||WATT|NOT DONE||PARACOLIC GUTTER|IPSILATERAL|U|NA|U|||Y|4||88||CONTINUATION TREATMENT|1965-09-04||||1960-11-09||1968-11-06
TRIAL STUDY 134XCP|VS|C04E8E9E-71C7-4595-AD9D-01A86B1AC5BB|1|||BSA|BODY SURFACE AREA|||SEMI-FOWLERS||HZ|||CMHG|NOT DONE||CRANIAL NERVE|CONTRALATERAL|NA|N|Y|||U|5||7||OPEN LABEL TREATMENT|1963-04-10||||1961-02-16||1962-05-19
TRIAL STUDY 134XCP|VS|C04E8E9E-71C7-4595-AD9D-01A86B1AC5BB|2|||LBM|LEAN BODY MASS|||LATERAL DECUBITUS||BREATHS/MIN|||F|NOT DONE||SPLENIC HILAR LYMPH NODE|UNILATERAL|N|U|U|||U|5||7||LONG-TERM FOLLOW-UP|1969-02-05||||1967-08-24||1971-10-02
TRIAL STUDY 134XCP|VS|9C24F018-315A-4B9C-B89B-F54CA26452E7|1|||BODYFATM|BODY FAT MEASUREMENT|||SITTING, LEGS DEPENDENT||M2|||KG/M2|NOT DONE||BICEPS FEMORIS MUSCLE|LATERAL|Y|NA|U|||N|1||38||RUN-IN|1964-03-06||||1969-03-20||1968-11-15
TRIAL STUDY 134XCP|VS|9C24F018-315A-4B9C-B89B-F54CA26452E7|2|||TEMP|TEMPERATURE|||SLING||M2|||K|NOT DONE||URACHAL TRACT|BILATERAL|U|N|N|||N|1||38||INDUCTION TREATMENT|1970-02-20||||1972-07-15||1963-08-26
TRIAL STUDY 134XCP|VS|9C24F018-315A-4B9C-B89B-F54CA26452E7|1|||WAISTHIP|WAIST TO HIP RATIO|||LEFT LATERAL DECUBITUS||PA|||MET|NOT DONE||INTERATRIAL SEPTUM|RIGHT|N|U|N|||U|2||58||OPEN LABEL TREATMENT|1968-07-28||||1966-06-27||1961-03-07
TRIAL STUDY 134XCP|VS|9C24F018-315A-4B9C-B89B-F54CA26452E7|2|||WEIGHT|WEIGHT|||LATERAL DECUBITUS||RATIO|||LB|NOT DONE||PUBIC BONE|BILATERAL|U|U|N|||NA|2||58||CONTINUATION TREATMENT|1960-03-31||||1969-05-02||1962-10-04
TRIAL STUDY 134XCP|VS|9C24F018-315A-4B9C-B89B-F54CA26452E7|1|||FRMSIZE|BODY FRAME SIZE|||RIGHT LATERAL DECUBITUS||HZ|||RATIO|NOT DONE||TOOTH CANAL|BILATERAL|N|Y|Y|||NA|3||39||CONTINUATION TREATMENT|1968-12-22||||1969-08-28||1961-07-06
TRIAL STUDY 134XCP|VS|9C24F018-315A-4B9C-B89B-F54CA26452E7|2|||DBPAPCTL|DIASTOLIC BP-FOR-AGE PERCENTILE|||LEFT LATERAL DECUBITUS||C|||MM|NOT DONE||METACARPOPHALANGEAL JOINT 1|CONTRALATERAL|NA|NA|Y|||U|3||39||OPEN LABEL TREATMENT|1970-09-25||||1962-04-15||1963-02-06
TRIAL STUDY 134XCP|VS|9C24F018-315A-4B9C-B89B-F54CA26452E7|1|||BODLNGTH|BODY LENGTH|||DECUBITUS||CM|||BREATHS/MIN|NOT DONE||FUNDUS OF THE EYE|UNILATERAL|U|Y|Y|||N|4||88||OBSERVATION|1968-04-14||||1960-10-02||1964-02-03
TRIAL STUDY 134XCP|VS|9C24F018-315A-4B9C-B89B-F54CA26452E7|2|||DBPAPCTL|DIASTOLIC BP-FOR-AGE PERCENTILE|||SITTING, LEGS DEPENDENT||HZ|||KCAL/DAY|NOT DONE||VOCAL CORD|IPSILATERAL|Y|NA|N|||U|4||88||RUN-IN|1969-02-27||||1969-11-30||1972-01-18
TRIAL STUDY 134XCP|VS|9C24F018-315A-4B9C-B89B-F54CA26452E7|1|||ULNARL|ULNAR LENGTH|||SLING||BEATS/MIN|||KG|NOT DONE||FOOT DIGIT 4|UNILATERAL|Y|NA|Y|||N|5||7||FOLLOW-UP|1965-10-06||||1973-07-17||1972-02-27
TRIAL STUDY 134XCP|VS|9C24F018-315A-4B9C-B89B-F54CA26452E7|2|||MAP|MEAN ARTERIAL PRESSURE|||LATERAL DECUBITUS||BEATS/MIN|||G|NOT DONE||ABDUCTOR DIGITI MINIMI MUSCLE OF THE HAND|LEFT|Y|NA|Y|||NA|5||7||OBSERVATION|1971-11-04||||1968-10-21||1973-06-06
TRIAL STUDY 134XCP|VS|AA9CE1A1-EAEF-4C04-A6BC-B56469AA236A|1|||SSSKNF|SUBSCAPULAR SKINFOLD THICKNESS|||PRONE||KG|||HZ|NOT DONE||SPINAL CORD|LEFT|N|N|N|||NA|1||38||BASELINE|1960-08-13||||1969-12-03||1973-03-07
TRIAL STUDY 134XCP|VS|AA9CE1A1-EAEF-4C04-A6BC-B56469AA236A|2|||FRMSIZE|BODY FRAME SIZE|||STANDING||%|||%|NOT DONE||PROXIMAL PHALANX 2 OF THE HAND|LATERAL|U|N|N|||U|1||38||BASELINE|1968-07-02||||1964-09-13||1971-01-25
TRIAL STUDY 134XCP|VS|AA9CE1A1-EAEF-4C04-A6BC-B56469AA236A|1|||FTSAD|FETAL SAGITTAL ABDOMINAL DIAMETER|||SUPINE||CM|||PA|NOT DONE||RIB 8|IPSILATERAL|Y|N|Y|||NA|2||58||WASHOUT|1967-02-04||||1969-08-06||1968-01-01
TRIAL STUDY 134XCP|VS|AA9CE1A1-EAEF-4C04-A6BC-B56469AA236A|2|||ENRGEXP|ENERGY EXPENDITURE|||PRONE||HZ|||F|NOT DONE||RETINAL PIGMENTED EPITHELIAL LAYER|RIGHT|NA|U|Y|||Y|2||58||OBSERVATION|1971-03-02||||1960-02-23||1962-01-18
TRIAL STUDY 134XCP|VS|AA9CE1A1-EAEF-4C04-A6BC-B56469AA236A|1|||TEMPCB|CORE BODY TEMPERATURE|||UNCONSTRAINED||CMHG|||%|NOT DONE||CORPUS CALLOSUM|RIGHT|Y|N|N|||Y|3||39||FOLLOW-UP|1973-08-15||||1973-07-01||1964-11-27
TRIAL STUDY 134XCP|VS|AA9CE1A1-EAEF-4C04-A6BC-B56469AA236A|2|||OXYSAT|OXYGEN SATURATION|||RIGHT LATERAL DECUBITUS||CMHG|||K|NOT DONE||RADIAL ARTERY|LATERAL|Y|NA|NA|||NA|3||39||OPEN LABEL TREATMENT|1971-04-07||||1972-07-31||1972-02-13
TRIAL STUDY 134XCP|VS|AA9CE1A1-EAEF-4C04-A6BC-B56469AA236A|1|||HEIGHT|HEIGHT|||RIGHT LATERAL DECUBITUS||PA|||HZ|NOT DONE||L5-S1 INTERVERTEBRAL SPACE|BILATERAL|NA|NA|NA|||N|4||88||BASELINE|1973-07-18||||1972-12-16||1962-02-02
TRIAL STUDY 134XCP|VS|AA9CE1A1-EAEF-4C04-A6BC-B56469AA236A|2|||MANDL|MANDIBULAR LENGTH|||SEMI-FOWLERS||BEATS/MIN|||F|NOT DONE||ENDOMETRIUM|LATERAL|Y|U|NA|||U|4||88||OBSERVATION|1972-11-28||||1970-10-29||1964-07-19
TRIAL STUDY 134XCP|VS|AA9CE1A1-EAEF-4C04-A6BC-B56469AA236A|1|||CHESTCIR|CHEST CIRCUMFERENCE|||PRONE||BEATS/MIN|||BREATHS/MIN|NOT DONE||SALIVARY GLAND|RIGHT|U|U|U|||Y|5||7||CONTINUATION TREATMENT|1968-08-27||||1966-05-19||1970-08-09
TRIAL STUDY 134XCP|VS|AA9CE1A1-EAEF-4C04-A6BC-B56469AA236A|2|||HTAPCTL|HEIGHT-FOR-AGE PERCENTILE|||STANDING||%|||PA|NOT DONE||ADDUCTOR MAGNUS MUSCLE|IPSILATERAL|N|N|Y|||NA|5||7||FOLLOW-UP|1971-06-21||||1965-04-19||1967-01-12
TRIAL STUDY 134XCP|VS|8D48F229-F38B-4335-B8A7-0AA24C928707|1|||NECKCIR|NECK CIRCUMFERENCE|||SITTING, LEGS DEPENDENT||KG|||MM|NOT DONE||PROXIMAL INTERPHALANGEAL JOINT 2|CONTRALATERAL|NA|U|U|||NA|1||38||RUN-IN|1968-03-02||||1972-05-08||1968-04-23
TRIAL STUDY 134XCP|VS|8D48F229-F38B-4335-B8A7-0AA24C928707|2|||OXYSAT|OXYGEN SATURATION|||PRONE||F|||LB|NOT DONE||TEMPORAL LOBE|IPSILATERAL|N|U|Y|||U|1||38||WASHOUT|1967-07-21||||1969-11-21||1961-08-20
TRIAL STUDY 134XCP|VS|8D48F229-F38B-4335-B8A7-0AA24C928707|1|||OXYSAT|OXYGEN SATURATION|||SITTING, LEGS DEPENDENT||M2|||MM|NOT DONE||MEDIASTINAL LYMPH NODE|BILATERAL|NA|U|U|||N|2||58||RUN-IN|1964-10-26||||1960-07-15||1973-06-18
TRIAL STUDY 134XCP|VS|8D48F229-F38B-4335-B8A7-0AA24C928707|2|||OXYSAT|OXYGEN SATURATION|||DECUBITUS||HZ|||F|NOT DONE||SOLEUS MUSCLE|LATERAL|U|NA|NA|||Y|2||58||OBSERVATION|1965-12-05||||1966-10-25||1960-09-20
TRIAL STUDY 134XCP|VS|8D48F229-F38B-4335-B8A7-0AA24C928707|1|||BODYFATM|BODY FAT MEASUREMENT|||PRONE||WATT|||PA|NOT DONE||GINGIVA|LEFT|N|U|U|||N|3||39||CONTINUATION TREATMENT|1961-03-24||||1966-02-14||1972-11-17
TRIAL STUDY 134XCP|VS|8D48F229-F38B-4335-B8A7-0AA24C928707|2|||LBM|LEAN BODY MASS|||LATERAL DECUBITUS||IN|||C|NOT DONE||FLEXOR DIGITORUM LONGUS MUSCLE|LATERAL|NA|N|U|||NA|3||39||WASHOUT|1967-05-16||||1960-11-24||1966-09-29
TRIAL STUDY 134XCP|VS|8D48F229-F38B-4335-B8A7-0AA24C928707|1|||ULNARL|ULNAR LENGTH|||FOWLERS||C|||BEATS/MIN|NOT DONE||LUNG, RIGHT, SUPERIOR LOBE, APICAL SEGMENT|UNILATERAL|N|U|N|||U|4||88||OBSERVATION|1964-12-31||||1962-03-22||1965-01-11
TRIAL STUDY 134XCP|VS|8D48F229-F38B-4335-B8A7-0AA24C928707|2|||BSA|BODY SURFACE AREA|||LATERAL DECUBITUS||BREATHS/MIN|||F|NOT DONE||PARAMETRIUM|CONTRALATERAL|N|N|Y|||U|4||88||SCREENING|1962-02-19||||1972-09-04||1964-04-30
TRIAL STUDY 134XCP|VS|8D48F229-F38B-4335-B8A7-0AA24C928707|1|||SYSBP|SYSTOLIC BLOOD PRESSURE|||LATERAL DECUBITUS||KG|||PA|NOT DONE||HEART, ATRIUM|BILATERAL|Y|U|NA|||Y|5||7||LONG-TERM FOLLOW-UP|1963-05-10||||1963-12-07||1970-09-22
TRIAL STUDY 134XCP|VS|8D48F229-F38B-4335-B8A7-0AA24C928707|2|||NECKCIR|NECK CIRCUMFERENCE|||DECUBITUS||RATIO|||LB|NOT DONE||HAND DIGIT 2|IPSILATERAL|Y|NA|N|||Y|5||7||BLINDED TREATMENT|1961-08-12||||1960-09-11||1960-12-21
TRIAL STUDY 134XCP|VS|F89F5FD5-AF3D-435F-9ABC-58BCB89FC3C6|1|||MAP|MEAN ARTERIAL PRESSURE|||STANDING, BENT FORWARD||%|||BREATHS/MIN|NOT DONE||PROXIMAL INTERPHALANGEAL JOINT 3 OF THE HAND|CONTRALATERAL|NA|U|NA|||N|1||38||CONTINUATION TREATMENT|1961-02-01||||1964-12-26||1963-02-02
TRIAL STUDY 134XCP|VS|F89F5FD5-AF3D-435F-9ABC-58BCB89FC3C6|2|||ENRGEXP|ENERGY EXPENDITURE|||LATERAL DECUBITUS||BREATHS/MIN|||MMHG|NOT DONE||MAIN BRONCHUS, RIGHT|RIGHT|N|N|N|||N|1||38||FOLLOW-UP|1966-02-21||||1971-02-26||1968-10-27
TRIAL STUDY 134XCP|VS|F89F5FD5-AF3D-435F-9ABC-58BCB89FC3C6|1|||BODYFATM|BODY FAT MEASUREMENT|||RIGHT LATERAL DECUBITUS||CMHG|||KG|NOT DONE||CALCARINE SULCUS|IPSILATERAL|NA|Y|N|||Y|2||58||OPEN LABEL TREATMENT|1968-12-31||||1960-12-14||1962-03-09
TRIAL STUDY 134XCP|VS|F89F5FD5-AF3D-435F-9ABC-58BCB89FC3C6|2|||HIPCIR|HIP CIRCUMFERENCE|||LEFT LATERAL DECUBITUS||C|||HZ|NOT DONE||PERITONEAL CAVITY|BILATERAL|N|U|N|||NA|2||58||CONTINUATION TREATMENT|1963-03-04||||1972-04-17||1972-07-21
TRIAL STUDY 134XCP|VS|F89F5FD5-AF3D-435F-9ABC-58BCB89FC3C6|1|||SYSBP|SYSTOLIC BLOOD PRESSURE|||LATERAL DECUBITUS||IN|||WATT|NOT DONE||MOTOR CORTEX|LEFT|N|Y|NA|||U|3||39||TREATMENT|1967-04-21||||1962-10-14||1968-04-27
TRIAL STUDY 134XCP|VS|F89F5FD5-AF3D-435F-9ABC-58BCB89FC3C6|2|||TEMP|TEMPERATURE|||SITTING, LEGS DEPENDENT||MET|||KCAL/DAY|NOT DONE||FIRST DORSAL INTEROSSEOUS MUSCLE OF THE FOOT|BILATERAL|U|NA|U|||NA|3||39||CONTINUATION TREATMENT|1970-06-19||||1967-04-29||1966-01-20
TRIAL STUDY 134XCP|VS|F89F5FD5-AF3D-435F-9ABC-58BCB89FC3C6|1|||SBPAPCTL|SYSTOLIC BP-FOR-AGE PERCENTILE|||SITTING, LEGS DEPENDENT||KG|||KG/M2|NOT DONE||SKIN OF THE AXILLA|RIGHT|N|NA|N|||U|4||88||BLINDED TREATMENT|1961-09-26||||1964-12-28||1961-10-15
TRIAL STUDY 134XCP|VS|F89F5FD5-AF3D-435F-9ABC-58BCB89FC3C6|2|||TEMPPB|PERIPHERAL BODY TEMPERATURE|||LEFT LATERAL DECUBITUS||K|||G|NOT DONE||FIBULAR VEIN|CONTRALATERAL|U|U|NA|||U|4||88||SCREENING|1962-08-19||||1973-08-24||1964-11-02
TRIAL STUDY 134XCP|VS|F89F5FD5-AF3D-435F-9ABC-58BCB89FC3C6|1|||FTEWT|FETAL ESTIMATED WEIGHT|||LEFT LATERAL DECUBITUS||MMHG|||PA|NOT DONE||EAR, INNER|IPSILATERAL|U|NA|U|||U|5||7||INDUCTION TREATMENT|1966-11-08||||1969-11-25||1969-11-03
TRIAL STUDY 134XCP|VS|F89F5FD5-AF3D-435F-9ABC-58BCB89FC3C6|2|||BMI|BODY MASS INDEX|||SLING||IN|||BEATS/MIN|NOT DONE||COLON WALL|CONTRALATERAL|NA|Y|U|||N|5||7||OBSERVATION|1964-07-11||||1967-03-08||1971-02-13
TRIAL STUDY 134XCP|VS|C882CB1F-C0DE-4BE5-B762-611333949C74|1|||RESP|RESPIRATORY RATE|||FOWLERS||KG/M2|||RATIO|NOT DONE||LUNG, LEFT, SUPERIOR LOBE, SUPERIOR LINGULAR SEGMENT|IPSILATERAL|NA|Y|N|||NA|1||38||LONG-TERM FOLLOW-UP|1971-09-26||||1973-07-12||1966-07-02
TRIAL STUDY 134XCP|VS|C882CB1F-C0DE-4BE5-B762-611333949C74|2|||DBPHPCTL|DIASTOLIC BP-FOR-HEIGHT PERCENTILE|||SEMI-FOWLERS||BEATS/MIN|||MM|NOT DONE||MAIN BRONCHUS, RIGHT|IPSILATERAL|N|N|Y|||U|1||38||SCREENING|1969-06-03||||1968-05-07||1970-02-18
TRIAL STUDY 134XCP|VS|C882CB1F-C0DE-4BE5-B762-611333949C74|1|||BODYFATM|BODY FAT MEASUREMENT|||STANDING||KCAL/DAY|||KG/M2|NOT DONE||DORSALIS PEDIS ARTERY|BILATERAL|Y|Y|U|||NA|2||58||CONTINUATION TREATMENT|1961-10-15||||1961-07-11||1969-04-15
TRIAL STUDY 134XCP|VS|C882CB1F-C0DE-4BE5-B762-611333949C74|2|||HDCIRC|HEAD CIRCUMFERENCE|||LATERAL DECUBITUS||MM|||RATIO|NOT DONE||GLUTEAL MUSCLE|RIGHT|NA|Y|N|||Y|2||58||CONTINUATION TREATMENT|1961-04-04||||1971-01-13||1961-07-19
TRIAL STUDY 134XCP|VS|C882CB1F-C0DE-4BE5-B762-611333949C74|1|||SBPAPCTL|SYSTOLIC BP-FOR-AGE PERCENTILE|||STANDING||MMHG|||BEATS/MIN|NOT DONE||HEART, RIGHT ATRIUM|BILATERAL|NA|U|NA|||N|3||39||RUN-IN|1966-10-02||||1965-09-21||1971-10-15
TRIAL STUDY 134XCP|VS|C882CB1F-C0DE-4BE5-B762-611333949C74|2|||CHESTCIR|CHEST CIRCUMFERENCE|||SITTING||MMHG|||IN|NOT DONE||VESTIBULOCOCHLEAR NERVE|LEFT|Y|NA|N|||N|3||39||LONG-TERM FOLLOW-UP|1971-07-23||||1970-06-23||1962-09-07
TRIAL STUDY 134XCP|VS|C882CB1F-C0DE-4BE5-B762-611333949C74|1|||BMI|BODY MASS INDEX|||SEMI-RECUMBENT||MET|||IN|NOT DONE||GASTROINTESTINAL TRACT, LOWER, WALL|RIGHT|N|NA|U|||U|4||88||OBSERVATION|1971-09-17||||1960-08-12||1967-11-11
TRIAL STUDY 134XCP|VS|C882CB1F-C0DE-4BE5-B762-611333949C74|2|||BMR|BASAL METABOLIC RATE|||SEMI-RECUMBENT||WATT|||MMHG|NOT DONE||CEREBELLUM|LATERAL|U|N|Y|||U|4||88||OBSERVATION|1972-08-14||||1968-07-21||1967-08-26
TRIAL STUDY 134XCP|VS|C882CB1F-C0DE-4BE5-B762-611333949C74|1|||TBW|TOTAL BODY WATER|||UNCONSTRAINED||F|||HZ|NOT DONE||OROPHARYNX|CONTRALATERAL|Y|N|N|||Y|5||7||OPEN LABEL TREATMENT|1962-01-24||||1960-01-17||1968-05-28
TRIAL STUDY 134XCP|VS|C882CB1F-C0DE-4BE5-B762-611333949C74|2|||HIPCIR|HIP CIRCUMFERENCE|||SUPINE||G|||F|NOT DONE||PERIPHERAL NERVE|LATERAL|U|N|Y|||N|5||7||LONG-TERM FOLLOW-UP|1972-11-02||||1964-06-14||1973-02-11
TRIAL STUDY 134XCP|VS|7F3C3801-607B-4141-AA83-383FDFFD7152|1|||FIO2|FRACTION OF INSPIRED OXYGEN|||LEFT LATERAL DECUBITUS||PA|||F|NOT DONE||CEREBRAL VEIN|IPSILATERAL|Y|N|N|||Y|1||38||OPEN LABEL TREATMENT|1970-12-24||||1971-01-10||1964-02-21
TRIAL STUDY 134XCP|VS|7F3C3801-607B-4141-AA83-383FDFFD7152|2|||RESP|RESPIRATORY RATE|||RIGHT LATERAL DECUBITUS||WATT|||F|NOT DONE||GASTROCNEMIUS MUSCLE|IPSILATERAL|U|Y|NA|||N|1||38||BASELINE|1960-05-28||||1960-04-19||1964-03-22
TRIAL STUDY 134XCP|VS|7F3C3801-607B-4141-AA83-383FDFFD7152|1|||DBPAPCTL|DIASTOLIC BP-FOR-AGE PERCENTILE|||REVERSE TRENDELENBURG||IN|||MMHG|NOT DONE||LYMPH NODE HILUM|LATERAL|Y|NA|Y|||NA|2||58||OPEN LABEL TREATMENT|1962-12-08||||1970-08-14||1969-09-10
TRIAL STUDY 134XCP|VS|7F3C3801-607B-4141-AA83-383FDFFD7152|2|||ULNARL|ULNAR LENGTH|||SLING||KCAL/DAY|||M2|NOT DONE||INFERIOR VENA CAVA|LEFT|N|NA|N|||U|2||58||CONTINUATION TREATMENT|1963-12-25||||1969-07-23||1969-01-05
TRIAL STUDY 134XCP|VS|7F3C3801-607B-4141-AA83-383FDFFD7152|1|||LBM|LEAN BODY MASS|||RIGHT LATERAL DECUBITUS||M2|||%|NOT DONE||ABDOMINAL CAVITY|LEFT|N|NA|Y|||NA|3||39||CONTINUATION TREATMENT|1971-10-15||||1966-12-02||1960-01-01
TRIAL STUDY 134XCP|VS|7F3C3801-607B-4141-AA83-383FDFFD7152|2|||INTP|INTERPRETATION|||SITTING, LEGS DEPENDENT||IN|||PA|NOT DONE||RIB 10|LEFT|U|U|Y|||Y|3||39||INDUCTION TREATMENT|1971-05-16||||1973-08-07||1965-05-17
TRIAL STUDY 134XCP|VS|7F3C3801-607B-4141-AA83-383FDFFD7152|1|||SAD|SAGITTAL ABDOMINAL DIAMETER|||SUPINE||K|||PA|NOT DONE||IRIS|LEFT|Y|N|U|||Y|4||88||SCREENING|1964-01-28||||1973-04-12||1972-01-26
TRIAL STUDY 134XCP|VS|7F3C3801-607B-4141-AA83-383FDFFD7152|2|||WTHTPCTL|WEIGHT-FOR-HEIGHT PERCENTILE|||DECUBITUS||PA|||RATIO|NOT DONE||EXTRAHEPATIC PERIHILAR BILE DUCT REGION|IPSILATERAL|U|N|Y|||N|4||88||OBSERVATION|1968-11-09||||1964-12-23||1970-03-18
TRIAL STUDY 134XCP|VS|7F3C3801-607B-4141-AA83-383FDFFD7152|1|||TEMP|TEMPERATURE|||SEMI-RECUMBENT||KCAL/DAY|||%|NOT DONE||L2 VERTEBRA|LATERAL|Y|Y|NA|||Y|5||7||RUN-IN|1961-07-27||||1967-10-29||1963-04-12
TRIAL STUDY 134XCP|VS|7F3C3801-607B-4141-AA83-383FDFFD7152|2|||HR|HEART RATE|||SUPINE||IN|||%|NOT DONE||URETHRA, POSTERIOR|RIGHT|NA|Y|NA|||U|5||7||FOLLOW-UP|1967-06-18||||1966-05-09||1965-06-22
TRIAL STUDY 134XCP|VS|0DD4FBE8-5D91-4E48-AD35-06597F95E5BB|1|||WTHTPCTL|WEIGHT-FOR-HEIGHT PERCENTILE|||STANDING, BENT FORWARD||KG|||PA|NOT DONE||PROXIMAL INTERPHALANGEAL JOINT 2 OF THE HAND|LEFT|N|Y|NA|||N|1||38||OBSERVATION|1968-03-06||||1967-01-01||1966-02-13
TRIAL STUDY 134XCP|VS|0DD4FBE8-5D91-4E48-AD35-06597F95E5BB|2|||SYSBP|SYSTOLIC BLOOD PRESSURE|||LATERAL DECUBITUS||BREATHS/MIN|||C|NOT DONE||PITUITARY GLAND|UNILATERAL|U|NA|NA|||Y|1||38||LONG-TERM FOLLOW-UP|1962-07-09||||1961-07-09||1964-01-02
TRIAL STUDY 134XCP|VS|0DD4FBE8-5D91-4E48-AD35-06597F95E5BB|1|||ABSKNF|ABDOMINAL SKINFOLD THICKNESS|||SITTING||MET|||%|NOT DONE||TIBIO-PERONEAL TRUNK|LEFT|N|Y|U|||NA|2||58||BLINDED TREATMENT|1962-12-10||||1967-01-02||1965-09-21
TRIAL STUDY 134XCP|VS|0DD4FBE8-5D91-4E48-AD35-06597F95E5BB|2|||TEMPPB|PERIPHERAL BODY TEMPERATURE|||RIGHT LATERAL DECUBITUS||RATIO|||BREATHS/MIN|NOT DONE||ABDOMINAL CAVITY|UNILATERAL|NA|Y|N|||Y|2||58||WASHOUT|1973-09-03||||1972-12-30||1965-01-07
TRIAL STUDY 134XCP|VS|0DD4FBE8-5D91-4E48-AD35-06597F95E5BB|1|||FARMCIR|FOREARM CIRCUMFERENCE|||SLING||C|||M2|NOT DONE||TRACHEOBRONCHIAL TREE|LEFT|U|NA|Y|||Y|3||39||FOLLOW-UP|1970-12-31||||1963-09-22||1971-07-28
TRIAL STUDY 134XCP|VS|0DD4FBE8-5D91-4E48-AD35-06597F95E5BB|2|||HEIGHT|HEIGHT|||PRONE||BREATHS/MIN|||G|NOT DONE||FACIAL BONE|CONTRALATERAL|U|N|NA|||NA|3||39||TREATMENT|1968-12-31||||1967-08-01||1967-02-27
TRIAL STUDY 134XCP|VS|0DD4FBE8-5D91-4E48-AD35-06597F95E5BB|1|||MUARMCIR|MID-UPPER ARM CIRCUMFERENCE|||SLING||IN|||G|NOT DONE||BLADDER|CONTRALATERAL|NA|U|NA|||NA|4||88||LONG-TERM FOLLOW-UP|1972-09-17||||1960-05-19||1968-10-08
TRIAL STUDY 134XCP|VS|0DD4FBE8-5D91-4E48-AD35-06597F95E5BB|2|||KNEEHEEL|KNEE TO HEEL LENGTH|||PRONE||RATIO|||G|NOT DONE||ABDOMINAL REGION|LEFT|NA|Y|U|||Y|4||88||WASHOUT|1971-11-15||||1972-02-07||1961-04-01
TRIAL STUDY 134XCP|VS|0DD4FBE8-5D91-4E48-AD35-06597F95E5BB|1|||IDEALWT|IDEAL BODY WEIGHT|||SEMI-FOWLERS||RATIO|||KCAL/DAY|NOT DONE||SKIN OF THE TRUNK|UNILATERAL|N|N|NA|||Y|5||7||BLINDED TREATMENT|1970-12-21||||1970-03-09||1970-11-13
TRIAL STUDY 134XCP|VS|0DD4FBE8-5D91-4E48-AD35-06597F95E5BB|2|||FIO2|FRACTION OF INSPIRED OXYGEN|||TRENDELENBURG||KG|||IN|NOT DONE||SUPERIOR PUBIC RAMUS|UNILATERAL|U|NA|N|||U|5||7||TREATMENT|1966-02-23||||1963-06-18||1971-06-16
TRIAL STUDY 134XCP|VS|67025219-DBC0-4222-9D04-7F23EE3D5806|1|||ENRGEXP|ENERGY EXPENDITURE|||RIGHT LATERAL DECUBITUS||F|||K|NOT DONE||HEART, LEFT VENTRICULAR OUTFLOW TRACT|LEFT|Y|Y|U|||Y|1||38||CONTINUATION TREATMENT|1973-01-17||||1966-02-01||1970-12-15
TRIAL STUDY 134XCP|VS|67025219-DBC0-4222-9D04-7F23EE3D5806|2|||NECKCIR|NECK CIRCUMFERENCE|||SLING||MMHG|||BEATS/MIN|NOT DONE||MOTOR CORTEX|LEFT|U|NA|NA|||Y|1||38||OPEN LABEL TREATMENT|1968-12-14||||1971-12-01||1964-10-16
TRIAL STUDY 134XCP|VS|67025219-DBC0-4222-9D04-7F23EE3D5806|1|||ULNARL|ULNAR LENGTH|||STANDING, BENT FORWARD||M2|||RATIO|NOT DONE||TRUNK|LEFT|N|NA|U|||NA|2||58||BASELINE|1971-04-02||||1972-04-01||1970-12-21
TRIAL STUDY 134XCP|VS|67025219-DBC0-4222-9D04-7F23EE3D5806|2|||FTMANDL|FETAL MANDIBULAR LENGTH|||SITTING, LEGS DEPENDENT||IN|||M2|NOT DONE||INTERNAL MAMMARY ARTERY|LEFT|U|U|NA|||U|2||58||WASHOUT|1964-04-21||||1963-10-04||1968-09-19
TRIAL STUDY 134XCP|VS|67025219-DBC0-4222-9D04-7F23EE3D5806|1|||BMI|BODY MASS INDEX|||LEFT LATERAL DECUBITUS||CM|||MM|NOT DONE||FLEXOR DIGITORUM BREVIS MUSCLE|IPSILATERAL|NA|U|U|||N|3||39||CONTINUATION TREATMENT|1962-12-11||||1971-07-06||1965-07-15
TRIAL STUDY 134XCP|VS|67025219-DBC0-4222-9D04-7F23EE3D5806|2|||MAP|MEAN ARTERIAL PRESSURE|||LEFT LATERAL DECUBITUS||C|||%|NOT DONE||VULVA|UNILATERAL|N|NA|NA|||U|3||39||TREATMENT|1965-11-19||||1960-10-12||1972-10-15
TRIAL STUDY 134XCP|VS|67025219-DBC0-4222-9D04-7F23EE3D5806|1|||FTEWT|FETAL ESTIMATED WEIGHT|||DECUBITUS||F|||KCAL/DAY|NOT DONE||INFERIOR PUBIC RAMUS|LATERAL|U|NA|Y|||U|4||88||CONTINUATION TREATMENT|1971-12-27||||1971-12-19||1973-05-26
TRIAL STUDY 134XCP|VS|67025219-DBC0-4222-9D04-7F23EE3D5806|2|||CHESTCIR|CHEST CIRCUMFERENCE|||SITTING, LEGS DEPENDENT||MM|||BEATS/MIN|NOT DONE||HEPATIC LYMPH NODE|UNILATERAL|N|N|N|||NA|4||88||BASELINE|1965-02-17||||1966-03-31||1969-04-18
TRIAL STUDY 134XCP|VS|67025219-DBC0-4222-9D04-7F23EE3D5806|1|||LBM|LEAN BODY MASS|||DECUBITUS||CMHG|||IN|NOT DONE||TRAPEZOID BONE|BILATERAL|N|NA|N|||U|5||7||OPEN LABEL TREATMENT|1962-02-05||||1965-05-27||1972-10-15
TRIAL STUDY 134XCP|VS|67025219-DBC0-4222-9D04-7F23EE3D5806|2|||HEIGHT|HEIGHT|||REVERSE TRENDELENBURG||M2|||C|NOT DONE||FAT PAD|CONTRALATERAL|N|Y|U|||N|5||7||TREATMENT|1972-06-26||||1961-05-11||1964-04-25
TRIAL STUDY 134XCP|VS|A865B860-E5F2-423D-8110-58EBF7E470F3|1|||IDEALWT|IDEAL BODY WEIGHT|||SEMI-RECUMBENT||MET|||MM|NOT DONE||KIDNEY, HILUM|LATERAL|U|Y|N|||NA|1||38||WASHOUT|1962-05-24||||1971-07-18||1973-07-24
TRIAL STUDY 134XCP|VS|A865B860-E5F2-423D-8110-58EBF7E470F3|2|||HEIGHT|HEIGHT|||SEMI-FOWLERS||KG|||LB|NOT DONE||SUBSTANTIA NIGRA|IPSILATERAL|NA|N|N|||N|1||38||FOLLOW-UP|1961-07-18||||1960-11-06||1964-07-05
TRIAL STUDY 134XCP|VS|A865B860-E5F2-423D-8110-58EBF7E470F3|1|||TRSKNF|TRICEPS SKINFOLD THICKNESS|||STANDING||G|||LB|NOT DONE||SUBLINGUAL REGION|LATERAL|Y|U|U|||Y|2||58||CONTINUATION TREATMENT|1964-04-26||||1962-07-21||1963-09-30
TRIAL STUDY 134XCP|VS|A865B860-E5F2-423D-8110-58EBF7E470F3|2|||TEMPPB|PERIPHERAL BODY TEMPERATURE|||SITTING, LEGS DEPENDENT||BREATHS/MIN|||KG|NOT DONE||SINUS|LATERAL|U|NA|NA|||NA|2||58||SCREENING|1968-12-02||||1962-12-28||1962-05-07
TRIAL STUDY 134XCP|VS|A865B860-E5F2-423D-8110-58EBF7E470F3|1|||FTSAD|FETAL SAGITTAL ABDOMINAL DIAMETER|||DECUBITUS||%|||BEATS/MIN|NOT DONE||METATARSOPHALANGEAL JOINT 4|RIGHT|N|Y|Y|||Y|3||39||FOLLOW-UP|1966-05-31||||1967-12-05||1964-11-03
TRIAL STUDY 134XCP|VS|A865B860-E5F2-423D-8110-58EBF7E470F3|2|||TEMPCB|CORE BODY TEMPERATURE|||TRENDELENBURG||M|||BEATS/MIN|NOT DONE||RECTOSIGMOID JUNCTION|IPSILATERAL|Y|NA|U|||Y|3||39||INDUCTION TREATMENT|1966-10-26||||1963-06-06||1964-02-07
TRIAL STUDY 134XCP|VS|A865B860-E5F2-423D-8110-58EBF7E470F3|1|||HTAPCTL|HEIGHT-FOR-AGE PERCENTILE|||PRONE||MET|||F|NOT DONE||UPPER CERVICAL LYMPH NODE|BILATERAL|N|U|N|||NA|4||88||OPEN LABEL TREATMENT|1961-08-18||||1962-01-31||1967-08-04
TRIAL STUDY 134XCP|VS|A865B860-E5F2-423D-8110-58EBF7E470F3|2|||DBPAPCTL|DIASTOLIC BP-FOR-AGE PERCENTILE|||STANDING, BENT FORWARD||HZ|||RATIO|NOT DONE||5TH LUMBAR SPINOUS PROCESS|BILATERAL|NA|N|NA|||N|4||88||RUN-IN|1969-04-11||||1973-07-04||1960-03-30
TRIAL STUDY 134XCP|VS|A865B860-E5F2-423D-8110-58EBF7E470F3|1|||MANDL|MANDIBULAR LENGTH|||TRENDELENBURG||KG|||HZ|NOT DONE||TARSAL JOINT|LATERAL|NA|Y|U|||N|5||7||LONG-TERM FOLLOW-UP|1969-02-03||||1970-12-24||1965-01-30
TRIAL STUDY 134XCP|VS|A865B860-E5F2-423D-8110-58EBF7E470F3|2|||HR|HEART RATE|||FOWLERS||BEATS/MIN|||%|NOT DONE||NUCLEUS OF DIAGONAL BAND|RIGHT|N|Y|Y|||U|5||7||OPEN LABEL TREATMENT|1962-03-28||||1961-01-23||1965-05-25
TRIAL STUDY 134XCP|VS|E78B2C0E-81D6-4898-B78A-FE136029AEA4|1|||WAISTHIP|WAIST TO HIP RATIO|||LEFT LATERAL DECUBITUS||HZ|||LB|NOT DONE||LEFT VENTRICULAR BASAL ANTEROLATERAL SEGMENT|UNILATERAL|N|Y|Y|||N|1||38||OPEN LABEL TREATMENT|1970-08-22||||1972-10-29||1964-02-10
TRIAL STUDY 134XCP|VS|E78B2C0E-81D6-4898-B78A-FE136029AEA4|2|||WSTCIR|WAIST CIRCUMFERENCE|||SITTING||CMHG|||LB|NOT DONE||WRIST JOINT|CONTRALATERAL|Y|NA|Y|||N|1||38||BASELINE|1962-01-05||||1973-04-17||1971-09-02
TRIAL STUDY 134XCP|VS|E78B2C0E-81D6-4898-B78A-FE136029AEA4|1|||SYSBP|SYSTOLIC BLOOD PRESSURE|||SLING||%|||KG|NOT DONE||METATARSAL BONE|IPSILATERAL|Y|N|N|||NA|2||58||OBSERVATION|1961-03-08||||1963-05-31||1970-07-25
TRIAL STUDY 134XCP|VS|E78B2C0E-81D6-4898-B78A-FE136029AEA4|2|||HTAPCTL|HEIGHT-FOR-AGE PERCENTILE|||SEMI-RECUMBENT||IN|||G|NOT DONE||RESPIRATORY SYSTEM|BILATERAL|N|U|U|||Y|2||58||OPEN LABEL TREATMENT|1968-04-25||||1970-06-24||1968-07-24
TRIAL STUDY 134XCP|VS|E78B2C0E-81D6-4898-B78A-FE136029AEA4|1|||MAP|MEAN ARTERIAL PRESSURE|||SITTING, LEGS DEPENDENT||MET|||G|NOT DONE||ABDUCTOR DIGITI MINIMI MUSCLE OF THE HAND|UNILATERAL|Y|Y|U|||NA|3||39||OBSERVATION|1972-11-12||||1965-08-29||1962-07-03
TRIAL STUDY 134XCP|VS|E78B2C0E-81D6-4898-B78A-FE136029AEA4|2|||FIO2|FRACTION OF INSPIRED OXYGEN|||REVERSE TRENDELENBURG||IN|||K|NOT DONE||GUT-ASSOCIATED LYMPHOID TISSUE|RIGHT|U|U|NA|||N|3||39||LONG-TERM FOLLOW-UP|1969-07-01||||1971-06-28||1962-11-29
TRIAL STUDY 134XCP|VS|E78B2C0E-81D6-4898-B78A-FE136029AEA4|1|||RESP|RESPIRATORY RATE|||STANDING, BENT FORWARD||MMHG|||%|NOT DONE||RAMUS INTERMEDIUS ARTERY|IPSILATERAL|U|NA|NA|||N|4||88||BASELINE|1973-06-22||||1969-10-22||1968-02-26
TRIAL STUDY 134XCP|VS|E78B2C0E-81D6-4898-B78A-FE136029AEA4|2|||MAXPREHR|MAXIMUM PREDICTED HEART RATE|||SUPINE||G|||BREATHS/MIN|NOT DONE||LUNG, RIGHT, INFERIOR LOBE, POSTERIOR BASAL SEGMENT|LATERAL|U|N|N|||U|4||88||CONTINUATION TREATMENT|1966-04-01||||1970-08-18||1972-04-21
TRIAL STUDY 134XCP|VS|E78B2C0E-81D6-4898-B78A-FE136029AEA4|1|||BMR|BASAL METABOLIC RATE|||FOWLERS||M|||K|NOT DONE||SUBCLAVIAN ARTERY|LATERAL|NA|Y|U|||U|5||7||TREATMENT|1973-06-15||||1969-01-27||1968-02-19
TRIAL STUDY 134XCP|VS|E78B2C0E-81D6-4898-B78A-FE136029AEA4|2|||BMI|BODY MASS INDEX|||PRONE||F|||HZ|NOT DONE||FLEXOR DIGITORUM LONGUS MUSCLE|UNILATERAL|U|NA|Y|||NA|5||7||LONG-TERM FOLLOW-UP|1963-09-04||||1961-02-09||1961-04-13
TRIAL STUDY 134XCP|VS|512B0190-2ABD-4477-BBAA-B5C8A57B1D53|1|||TBW|TOTAL BODY WATER|||FOWLERS||MM|||G|NOT DONE||RECTO-UTERINE POUCH|LATERAL|N|U|NA|||U|1||38||OBSERVATION|1962-04-04||||1970-01-24||1968-09-23
TRIAL STUDY 134XCP|VS|512B0190-2ABD-4477-BBAA-B5C8A57B1D53|2|||DBPAPCTL|DIASTOLIC BP-FOR-AGE PERCENTILE|||RIGHT LATERAL DECUBITUS||WATT|||MMHG|NOT DONE||RECTOVAGINAL SPACE|UNILATERAL|U|NA|U|||Y|1||38||BLINDED TREATMENT|1961-10-25||||1968-03-31||1965-01-27
TRIAL STUDY 134XCP|VS|512B0190-2ABD-4477-BBAA-B5C8A57B1D53|1|||HDCIRC|HEAD CIRCUMFERENCE|||FOWLERS||MET|||CMHG|NOT DONE||SACRUM|UNILATERAL|N|Y|Y|||N|2||58||SCREENING|1971-04-22||||1960-12-11||1973-02-21
TRIAL STUDY 134XCP|VS|512B0190-2ABD-4477-BBAA-B5C8A57B1D53|2|||FTMANDL|FETAL MANDIBULAR LENGTH|||SEMI-RECUMBENT||PA|||C|NOT DONE||KIDNEY, MEDULLA|IPSILATERAL|U|Y|U|||N|2||58||TREATMENT|1971-02-18||||1970-08-23||1967-07-02
TRIAL STUDY 134XCP|VS|512B0190-2ABD-4477-BBAA-B5C8A57B1D53|1|||WAISTHIP|WAIST TO HIP RATIO|||PRONE||F|||WATT|NOT DONE||KNEE JOINT|IPSILATERAL|N|NA|U|||NA|3||39||BASELINE|1960-09-30||||1963-05-20||1965-01-04
TRIAL STUDY 134XCP|VS|512B0190-2ABD-4477-BBAA-B5C8A57B1D53|2|||FIO2|FRACTION OF INSPIRED OXYGEN|||SEMI-RECUMBENT||G|||MM|NOT DONE||MEDIASTINUM, POSTERIOR|UNILATERAL|N|N|NA|||N|3||39||LONG-TERM FOLLOW-UP|1971-11-05||||1972-08-02||1971-09-29
TRIAL STUDY 134XCP|VS|512B0190-2ABD-4477-BBAA-B5C8A57B1D53|1|||LBM|LEAN BODY MASS|||REVERSE TRENDELENBURG||KG|||KCAL/DAY|NOT DONE||GASTROCNEMIUS MUSCLE, MEDIAL HEAD|IPSILATERAL|Y|U|Y|||U|4||88||BLINDED TREATMENT|1962-07-09||||1973-01-04||1973-08-26
TRIAL STUDY 134XCP|VS|512B0190-2ABD-4477-BBAA-B5C8A57B1D53|2|||BODYFATM|BODY FAT MEASUREMENT|||FOWLERS||CM|||KCAL/DAY|NOT DONE||BASILIC VEIN|LATERAL|N|NA|Y|||N|4||88||LONG-TERM FOLLOW-UP|1973-04-24||||1972-05-03||1967-08-26
TRIAL STUDY 134XCP|VS|512B0190-2ABD-4477-BBAA-B5C8A57B1D53|1|||RESP|RESPIRATORY RATE|||FOWLERS||M2|||KG/M2|NOT DONE||CHEST|BILATERAL|Y|U|N|||Y|5||7||OPEN LABEL TREATMENT|1970-06-10||||1967-10-21||1967-06-09
TRIAL STUDY 134XCP|VS|512B0190-2ABD-4477-BBAA-B5C8A57B1D53|2|||LBM|LEAN BODY MASS|||SLING||K|||K|NOT DONE||WRIST JOINT FLEXOR TENDONS|CONTRALATERAL|Y|U|U|||NA|5||7||TREATMENT|1967-04-26||||1961-06-13||1967-12-25
TRIAL STUDY 134XCP|VS|C0642FE2-8A9A-4CFA-80C1-71B884E4D8BF|1|||CPLRFLT|CAPILLARY REFILL TIME|||RIGHT LATERAL DECUBITUS||KCAL/DAY|||M2|NOT DONE||UMBILICUS|IPSILATERAL|NA|Y|Y|||Y|1||38||SCREENING|1973-01-04||||1973-02-26||1961-04-13
TRIAL STUDY 134XCP|VS|C0642FE2-8A9A-4CFA-80C1-71B884E4D8BF|2|||SSSKNF|SUBSCAPULAR SKINFOLD THICKNESS|||REVERSE TRENDELENBURG||CM|||HZ|NOT DONE||CALF MUSCULAR VEIN|UNILATERAL|U|N|NA|||Y|1||38||FOLLOW-UP|1961-07-29||||1962-08-20||1970-06-19
TRIAL STUDY 134XCP|VS|C0642FE2-8A9A-4CFA-80C1-71B884E4D8BF|1|||DBPAPCTL|DIASTOLIC BP-FOR-AGE PERCENTILE|||SITTING||KG/M2|||LB|NOT DONE||SUBMENTAL LYMPH NODE|LATERAL|NA|U|NA|||NA|2||58||BASELINE|1966-08-02||||1970-07-09||1971-11-30
TRIAL STUDY 134XCP|VS|C0642FE2-8A9A-4CFA-80C1-71B884E4D8BF|2|||ENRGEXP|ENERGY EXPENDITURE|||STANDING, BENT FORWARD||RATIO|||RATIO|NOT DONE||GLUTEAL MUSCLE|RIGHT|Y|NA|Y|||U|2||58||OPEN LABEL TREATMENT|1962-08-18||||1963-11-12||1963-08-28
TRIAL STUDY 134XCP|VS|C0642FE2-8A9A-4CFA-80C1-71B884E4D8BF|1|||HIPCIR|HIP CIRCUMFERENCE|||PRONE||MMHG|||RATIO|NOT DONE||HYOID BONE|BILATERAL|Y|N|U|||NA|3||39||RUN-IN|1966-01-15||||1971-01-30||1964-11-26
TRIAL STUDY 134XCP|VS|C0642FE2-8A9A-4CFA-80C1-71B884E4D8BF|2|||INTP|INTERPRETATION|||SITTING||BREATHS/MIN|||HZ|NOT DONE||SUPRASPINATUS MUSCLE|BILATERAL|N|N|NA|||NA|3||39||FOLLOW-UP|1968-04-02||||1960-04-03||1968-12-21
TRIAL STUDY 134XCP|VS|C0642FE2-8A9A-4CFA-80C1-71B884E4D8BF|1|||DBPAPCTL|DIASTOLIC BP-FOR-AGE PERCENTILE|||STANDING||HZ|||IN|NOT DONE||SUBSTANTIA NIGRA|CONTRALATERAL|NA|N|NA|||N|4||88||RUN-IN|1966-06-03||||1965-09-01||1971-01-08
TRIAL STUDY 134XCP|VS|C0642FE2-8A9A-4CFA-80C1-71B884E4D8BF|2|||BODYFATM|BODY FAT MEASUREMENT|||SITTING, LEGS DEPENDENT||G|||%|NOT DONE||5TH LUMBAR SPINOUS PROCESS|CONTRALATERAL|N|N|Y|||NA|4||88||OPEN LABEL TREATMENT|1972-11-01||||1971-06-01||1961-06-23
TRIAL STUDY 134XCP|VS|C0642FE2-8A9A-4CFA-80C1-71B884E4D8BF|1|||MANDL|MANDIBULAR LENGTH|||STANDING, BENT FORWARD||KG|||LB|NOT DONE||THIRD POSTEROLATERAL DESCENDING ARTERY|CONTRALATERAL|NA|U|NA|||N|5||7||CONTINUATION TREATMENT|1972-08-26||||1969-03-06||1972-12-22
TRIAL STUDY 134XCP|VS|C0642FE2-8A9A-4CFA-80C1-71B884E4D8BF|2|||BMIAPCTL|BMI-FOR-AGE PERCENTILE|||DECUBITUS||KG|||MET|NOT DONE||LUNG, RIGHT, MIDDLE LOBE, MEDIAL SEGMENT|IPSILATERAL|Y|U|Y|||U|5||7||OPEN LABEL TREATMENT|1964-04-28||||1971-12-06||1973-02-04
TRIAL STUDY 134XCP|VS|55210E20-F6B9-446F-994D-2D9149E33BAF|1|||MAP|MEAN ARTERIAL PRESSURE|||REVERSE TRENDELENBURG||BEATS/MIN|||MMHG|NOT DONE||PROXIMAL LAD ARTERY|LEFT|Y|NA|U|||N|1||38||WASHOUT|1965-08-12||||1962-10-24||1966-03-30
TRIAL STUDY 134XCP|VS|55210E20-F6B9-446F-994D-2D9149E33BAF|2|||FARMCIR|FOREARM CIRCUMFERENCE|||STANDING, BENT FORWARD||MMHG|||%|NOT DONE||MEDIASTINUM, MIDDLE|IPSILATERAL|N|Y|N|||U|1||38||FOLLOW-UP|1971-11-20||||1969-12-01||1970-10-06
TRIAL STUDY 134XCP|VS|55210E20-F6B9-446F-994D-2D9149E33BAF|1|||WTAPCTL|WEIGHT-FOR-AGE PERCENTILE|||LATERAL DECUBITUS||KG|||G|NOT DONE||RECTUS FEMORIS MUSCLE|CONTRALATERAL|U|N|N|||N|2||58||OBSERVATION|1966-01-02||||1972-06-04||1961-01-21
TRIAL STUDY 134XCP|VS|55210E20-F6B9-446F-994D-2D9149E33BAF|2|||SAD|SAGITTAL ABDOMINAL DIAMETER|||DECUBITUS||WATT|||C|NOT DONE||HEART, APEX|LEFT|NA|NA|N|||U|2||58||LONG-TERM FOLLOW-UP|1966-12-03||||1960-10-01||1972-11-02
TRIAL STUDY 134XCP|VS|55210E20-F6B9-446F-994D-2D9149E33BAF|1|||CPLRFLT|CAPILLARY REFILL TIME|||RIGHT LATERAL DECUBITUS||CM|||KG|NOT DONE||WRIST JOINT|LATERAL|U|N|N|||Y|3||39||OBSERVATION|1961-10-28||||1967-04-28||1964-06-26
TRIAL STUDY 134XCP|VS|55210E20-F6B9-446F-994D-2D9149E33BAF|2|||IDEALWT|IDEAL BODY WEIGHT|||SEMI-FOWLERS||KG/M2|||F|NOT DONE||PERICARDIAL CAVITY|UNILATERAL|U|NA|N|||NA|3||39||INDUCTION TREATMENT|1964-03-08||||1960-03-02||1970-02-07
TRIAL STUDY 134XCP|VS|55210E20-F6B9-446F-994D-2D9149E33BAF|1|||SYSBP|SYSTOLIC BLOOD PRESSURE|||TRENDELENBURG||LB|||%|NOT DONE||MITRAL VALVE, ANTERIOR ANNULUS|LATERAL|Y|Y|U|||N|4||88||CONTINUATION TREATMENT|1970-07-30||||1961-12-09||1961-12-05
TRIAL STUDY 134XCP|VS|55210E20-F6B9-446F-994D-2D9149E33BAF|2|||BMI|BODY MASS INDEX|||TRENDELENBURG||CMHG|||MMHG|NOT DONE||PRECUNEUS|UNILATERAL|Y|U|U|||N|4||88||LONG-TERM FOLLOW-UP|1968-05-14||||1961-04-05||1968-11-26
TRIAL STUDY 134XCP|VS|55210E20-F6B9-446F-994D-2D9149E33BAF|1|||WAISTHIP|WAIST TO HIP RATIO|||SEMI-FOWLERS||M|||F|NOT DONE||ETHMOID BONE|UNILATERAL|Y|NA|Y|||Y|5||7||BASELINE|1972-06-29||||1963-07-31||1972-09-17
TRIAL STUDY 134XCP|VS|55210E20-F6B9-446F-994D-2D9149E33BAF|2|||BMI|BODY MASS INDEX|||SEMI-FOWLERS||HZ|||F|NOT DONE||PINEAL GLAND|BILATERAL|Y|N|Y|||N|5||7||OPEN LABEL TREATMENT|1966-03-17||||1961-05-12||1972-02-05
TRIAL STUDY 134XCP|VS|1BE8ACB9-BEE8-4AFD-B384-D4C860B12450|1|||BMR|BASAL METABOLIC RATE|||SLING||MET|||C|NOT DONE||PERIUMBILICAL REGION|UNILATERAL|N|Y|Y|||U|1||38||LONG-TERM FOLLOW-UP|1969-09-10||||1969-09-01||1968-01-03
TRIAL STUDY 134XCP|VS|1BE8ACB9-BEE8-4AFD-B384-D4C860B12450|2|||FTMANDL|FETAL MANDIBULAR LENGTH|||LATERAL DECUBITUS||KCAL/DAY|||PA|NOT DONE||LUNG, LEFT, SUPERIOR LOBE, APICOPOSTERIOR SEGMENT|RIGHT|NA|N|NA|||U|1||38||CONTINUATION TREATMENT|1962-07-11||||1968-10-25||1972-06-20
TRIAL STUDY 134XCP|VS|1BE8ACB9-BEE8-4AFD-B384-D4C860B12450|1|||ULNARL|ULNAR LENGTH|||STANDING||C|||C|NOT DONE||GASTROESOPHAGEAL JUNCTION|RIGHT|Y|NA|NA|||U|2||58||LONG-TERM FOLLOW-UP|1965-12-12||||1963-12-30||1968-08-28
TRIAL STUDY 134XCP|VS|1BE8ACB9-BEE8-4AFD-B384-D4C860B12450|2|||FTHDCIRC|FETAL HEAD CIRCUMFERENCE|||STANDING||PA|||CMHG|NOT DONE||RETROAURICULAR LYMPH NODE|CONTRALATERAL|NA|N|Y|||N|2||58||CONTINUATION TREATMENT|1960-08-30||||1970-10-07||1961-04-27
TRIAL STUDY 134XCP|VS|1BE8ACB9-BEE8-4AFD-B384-D4C860B12450|1|||MAXPREHR|MAXIMUM PREDICTED HEART RATE|||SITTING, LEGS DEPENDENT||WATT|||MMHG|NOT DONE||METACARPOPHALANGEAL JOINT 1|BILATERAL|NA|N|N|||Y|3||39||INDUCTION TREATMENT|1965-05-04||||1965-05-05||1967-11-21
TRIAL STUDY 134XCP|VS|1BE8ACB9-BEE8-4AFD-B384-D4C860B12450|2|||CPLRFLT|CAPILLARY REFILL TIME|||STANDING||G|||CMHG|NOT DONE||PERICARDIUM|BILATERAL|U|Y|N|||N|3||39||OPEN LABEL TREATMENT|1966-09-28||||1968-03-18||1962-01-02
TRIAL STUDY 134XCP|VS|1BE8ACB9-BEE8-4AFD-B384-D4C860B12450|1|||LBM|LEAN BODY MASS|||SITTING||KCAL/DAY|||LB|NOT DONE||HEAD AND NECK|LATERAL|Y|NA|Y|||N|4||88||FOLLOW-UP|1963-09-17||||1972-02-15||1966-04-21
TRIAL STUDY 134XCP|VS|1BE8ACB9-BEE8-4AFD-B384-D4C860B12450|2|||SBPHPCTL|SYSTOLIC BP-FOR-HEIGHT PERCENTILE|||REVERSE TRENDELENBURG||G|||BREATHS/MIN|NOT DONE||SPINAL CORD|BILATERAL|N|NA|U|||N|4||88||WASHOUT|1960-05-01||||1971-05-26||1968-06-12
TRIAL STUDY 134XCP|VS|1BE8ACB9-BEE8-4AFD-B384-D4C860B12450|1|||FTHR|FETAL HEART RATE|||SITTING, LEGS DEPENDENT||F|||KG/M2|NOT DONE||NIPPLE|CONTRALATERAL|U|NA|U|||Y|5||7||FOLLOW-UP|1968-12-04||||1963-10-14||1960-10-27
TRIAL STUDY 134XCP|VS|1BE8ACB9-BEE8-4AFD-B384-D4C860B12450|2|||TBW|TOTAL BODY WATER|||STANDING, BENT FORWARD||BREATHS/MIN|||WATT|NOT DONE||THYROID GLAND|UNILATERAL|U|U|N|||NA|5||7||CONTINUATION TREATMENT|1966-03-19||||1971-05-31||1968-06-22
TRIAL STUDY 134XCP|VS|68F4DB07-31EC-4ECA-92BF-7D6986E4B33A|1|||FTMANDL|FETAL MANDIBULAR LENGTH|||FOWLERS||BREATHS/MIN|||C|NOT DONE||ANTERIOR TIBIAL VEIN|BILATERAL|Y|U|U|||NA|1||38||TREATMENT|1967-05-26||||1963-07-18||1972-08-11
TRIAL STUDY 134XCP|VS|68F4DB07-31EC-4ECA-92BF-7D6986E4B33A|2|||BODYFATM|BODY FAT MEASUREMENT|||SITTING||%|||RATIO|NOT DONE||ULNAR NERVE|BILATERAL|Y|N|Y|||Y|1||38||CONTINUATION TREATMENT|1968-06-29||||1972-01-28||1961-12-06
TRIAL STUDY 134XCP|VS|68F4DB07-31EC-4ECA-92BF-7D6986E4B33A|1|||BMIAPCTL|BMI-FOR-AGE PERCENTILE|||SITTING, LEGS DEPENDENT||MMHG|||PA|NOT DONE||MIDDLE EAR|LATERAL|Y|N|NA|||Y|2||58||TREATMENT|1971-07-07||||1962-09-19||1961-05-15
TRIAL STUDY 134XCP|VS|68F4DB07-31EC-4ECA-92BF-7D6986E4B33A|2|||SAO2FIO2|OXYGEN SATURATION/FRACTION INSPIRED O2|||SUPINE||KCAL/DAY|||%|NOT DONE||EYELID|BILATERAL|Y|U|N|||U|2||58||RUN-IN|1965-05-17||||1962-12-19||1962-08-20
TRIAL STUDY 134XCP|VS|68F4DB07-31EC-4ECA-92BF-7D6986E4B33A|1|||BMR|BASAL METABOLIC RATE|||UNCONSTRAINED||HZ|||LB|NOT DONE||INTESTINE|BILATERAL|Y|U|U|||U|3||39||OBSERVATION|1970-09-09||||1971-05-19||1961-08-30
TRIAL STUDY 134XCP|VS|68F4DB07-31EC-4ECA-92BF-7D6986E4B33A|2|||FTWTGAPL|FETAL WEIGHT-FOR-GEST AGE PERCENTILE|||DECUBITUS||K|||G|NOT DONE||MITRAL VALVE ANNULUS|RIGHT|N|N|NA|||Y|3||39||INDUCTION TREATMENT|1969-07-09||||1967-12-17||1967-06-10
TRIAL STUDY 134XCP|VS|68F4DB07-31EC-4ECA-92BF-7D6986E4B33A|1|||FRMSIZE|BODY FRAME SIZE|||TRENDELENBURG||C|||KG/M2|NOT DONE||L4-L5 INTERVERTEBRAL SPACE|UNILATERAL|Y|Y|Y|||NA|4||88||CONTINUATION TREATMENT|1962-07-20||||1969-05-30||1973-05-15
TRIAL STUDY 134XCP|VS|68F4DB07-31EC-4ECA-92BF-7D6986E4B33A|2|||FTWTGAPL|FETAL WEIGHT-FOR-GEST AGE PERCENTILE|||FOWLERS||LB|||M|NOT DONE||NUCLEUS OF DIAGONAL BAND|UNILATERAL|NA|Y|Y|||Y|4||88||BLINDED TREATMENT|1966-11-19||||1962-05-27||1967-01-12
TRIAL STUDY 134XCP|VS|68F4DB07-31EC-4ECA-92BF-7D6986E4B33A|1|||FARMCIR|FOREARM CIRCUMFERENCE|||FOWLERS||WATT|||F|NOT DONE||T1 VERTEBRA|RIGHT|NA|U|N|||U|5||7||LONG-TERM FOLLOW-UP|1961-04-07||||1967-11-27||1963-10-02
TRIAL STUDY 134XCP|VS|68F4DB07-31EC-4ECA-92BF-7D6986E4B33A|2|||HTAPCTL|HEIGHT-FOR-AGE PERCENTILE|||SEMI-FOWLERS||IN|||BEATS/MIN|NOT DONE||SPINAL CORD|UNILATERAL|U|U|N|||N|5||7||WASHOUT|1964-11-16||||1966-03-19||1973-07-15
TRIAL STUDY 134XCP|VS|C46B45B7-0CC3-4997-A6B9-DAA58B8D33D7|1|||TEMP|TEMPERATURE|||FOWLERS||RATIO|||K|NOT DONE||LATERAL HUMERAL EPICONDYLE|CONTRALATERAL|U|NA|N|||U|1||38||FOLLOW-UP|1960-05-30||||1969-11-24||1961-11-28
TRIAL STUDY 134XCP|VS|C46B45B7-0CC3-4997-A6B9-DAA58B8D33D7|2|||IDEALWT|IDEAL BODY WEIGHT|||TRENDELENBURG||MET|||K|NOT DONE||DIGIT|LATERAL|N|NA|Y|||Y|1||38||FOLLOW-UP|1965-09-22||||1964-08-24||1973-02-10
TRIAL STUDY 134XCP|VS|C46B45B7-0CC3-4997-A6B9-DAA58B8D33D7|1|||FTEWT|FETAL ESTIMATED WEIGHT|||TRENDELENBURG||MM|||C|NOT DONE||DISTAL COMMON BILE DUCT|RIGHT|NA|Y|N|||NA|2||58||WASHOUT|1970-06-14||||1967-07-17||1966-03-30
TRIAL STUDY 134XCP|VS|C46B45B7-0CC3-4997-A6B9-DAA58B8D33D7|2|||HIPCIR|HIP CIRCUMFERENCE|||SLING||KG/M2|||M|NOT DONE||UTERINE ARTERY|LATERAL|U|NA|U|||NA|2||58||CONTINUATION TREATMENT|1968-05-04||||1961-04-16||1970-03-12
TRIAL STUDY 134XCP|VS|C46B45B7-0CC3-4997-A6B9-DAA58B8D33D7|1|||HIPCIR|HIP CIRCUMFERENCE|||LEFT LATERAL DECUBITUS||K|||BREATHS/MIN|NOT DONE||MEDIAN OR LOWER CERVICAL LYMPH NODE|IPSILATERAL|U|NA|N|||N|3||39||FOLLOW-UP|1966-05-09||||1971-10-19||1966-03-29
TRIAL STUDY 134XCP|VS|C46B45B7-0CC3-4997-A6B9-DAA58B8D33D7|2|||MANDL|MANDIBULAR LENGTH|||REVERSE TRENDELENBURG||MM|||MMHG|NOT DONE||PERIANAL REGION|RIGHT|NA|U|Y|||NA|3||39||RUN-IN|1971-10-04||||1969-10-04||1970-04-28
TRIAL STUDY 134XCP|VS|C46B45B7-0CC3-4997-A6B9-DAA58B8D33D7|1|||FTEWT|FETAL ESTIMATED WEIGHT|||SUPINE||M|||BREATHS/MIN|NOT DONE||MALE REPRODUCTIVE SYSTEM|UNILATERAL|N|U|N|||U|4||88||CONTINUATION TREATMENT|1964-09-10||||1973-09-06||1964-03-26
TRIAL STUDY 134XCP|VS|C46B45B7-0CC3-4997-A6B9-DAA58B8D33D7|2|||CRWNHEEL|CROWN-TO-HEEL LENGTH|||PRONE||MM|||F|NOT DONE||PERICARDIAL WALL|BILATERAL|NA|N|NA|||Y|4||88||CONTINUATION TREATMENT|1970-11-10||||1960-09-14||1972-07-11
TRIAL STUDY 134XCP|VS|C46B45B7-0CC3-4997-A6B9-DAA58B8D33D7|1|||CHESTCIR|CHEST CIRCUMFERENCE|||STANDING, BENT FORWARD||KG/M2|||LB|NOT DONE||CORPUS CALLOSUM|BILATERAL|NA|NA|N|||N|5||7||BASELINE|1972-12-02||||1973-02-04||1973-05-01
TRIAL STUDY 134XCP|VS|C46B45B7-0CC3-4997-A6B9-DAA58B8D33D7|2|||CRWNHEEL|CROWN-TO-HEEL LENGTH|||SITTING||F|||IN|NOT DONE||BUCCAL MUCOSA|UNILATERAL|Y|U|U|||U|5||7||TREATMENT|1967-01-21||||1971-03-05||1966-05-27
TRIAL STUDY 134XCP|VS|1616C5D6-32D7-4A5D-A025-59DE09E55B0D|1|||KNEEHEEL|KNEE TO HEEL LENGTH|||PRONE||K|||IN|NOT DONE||CUBOID BONE|RIGHT|U|Y|Y|||Y|1||38||OPEN LABEL TREATMENT|1960-02-01||||1960-05-05||1960-09-09
TRIAL STUDY 134XCP|VS|1616C5D6-32D7-4A5D-A025-59DE09E55B0D|2|||MANDL|MANDIBULAR LENGTH|||FOWLERS||K|||KG|NOT DONE||CARPOMETACARPAL JOINT 5|UNILATERAL|Y|NA|U|||NA|1||38||TREATMENT|1966-08-29||||1960-11-27||1966-07-04
TRIAL STUDY 134XCP|VS|1616C5D6-32D7-4A5D-A025-59DE09E55B0D|1|||RESP|RESPIRATORY RATE|||SLING||KG/M2|||M2|NOT DONE||L4-L5 INTERVERTEBRAL SPACE|RIGHT|NA|Y|N|||U|2||58||CONTINUATION TREATMENT|1972-04-16||||1966-02-03||1962-04-22
TRIAL STUDY 134XCP|VS|1616C5D6-32D7-4A5D-A025-59DE09E55B0D|2|||SSSKNF|SUBSCAPULAR SKINFOLD THICKNESS|||LATERAL DECUBITUS||MM|||G|NOT DONE||INTRAHEPATIC BILE DUCT|BILATERAL|NA|N|U|||N|2||58||BLINDED TREATMENT|1969-01-21||||1970-07-03||1969-07-22
TRIAL STUDY 134XCP|VS|1616C5D6-32D7-4A5D-A025-59DE09E55B0D|1|||WSTCIR|WAIST CIRCUMFERENCE|||SLING||C|||K|NOT DONE||SEMINAL VESICLE|LATERAL|U|N|N|||Y|3||39||RUN-IN|1969-10-02||||1965-03-24||1964-05-18
TRIAL STUDY 134XCP|VS|1616C5D6-32D7-4A5D-A025-59DE09E55B0D|2|||SAO2FIO2|OXYGEN SATURATION/FRACTION INSPIRED O2|||STANDING||%|||IN|NOT DONE||PLEURAL CAVITY|IPSILATERAL|U|Y|U|||Y|3||39||RUN-IN|1966-06-21||||1962-01-02||1960-07-11
TRIAL STUDY 134XCP|VS|1616C5D6-32D7-4A5D-A025-59DE09E55B0D|1|||WSTCIR|WAIST CIRCUMFERENCE|||SEMI-RECUMBENT||MMHG|||WATT|NOT DONE||BODY OF STOMACH|RIGHT|N|U|Y|||N|4||88||SCREENING|1970-02-10||||1966-11-17||1965-11-19
TRIAL STUDY 134XCP|VS|1616C5D6-32D7-4A5D-A025-59DE09E55B0D|2|||DIABP|DIASTOLIC BLOOD PRESSURE|||STANDING, BENT FORWARD||C|||MM|NOT DONE||OPHTHALMIC ARTERY|UNILATERAL|N|Y|U|||Y|4||88||LONG-TERM FOLLOW-UP|1965-10-06||||1973-01-05||1960-08-25
TRIAL STUDY 134XCP|VS|1616C5D6-32D7-4A5D-A025-59DE09E55B0D|1|||WTAPCTL|WEIGHT-FOR-AGE PERCENTILE|||LEFT LATERAL DECUBITUS||MMHG|||KG/M2|NOT DONE||RIB 3|LATERAL|Y|N|U|||N|5||7||BLINDED TREATMENT|1965-07-07||||1972-03-03||1970-09-04
TRIAL STUDY 134XCP|VS|1616C5D6-32D7-4A5D-A025-59DE09E55B0D|2|||TRSKNF|TRICEPS SKINFOLD THICKNESS|||LATERAL DECUBITUS||K|||K|NOT DONE||INTERPHALANGEAL JOINT 3 OF THE HAND|IPSILATERAL|NA|Y|N|||N|5||7||OBSERVATION|1963-02-20||||1973-03-31||1972-11-09
TRIAL STUDY 134XCP|VS|CAD0ED37-954A-4935-8A7E-589EC108E141|1|||MUARMCIR|MID-UPPER ARM CIRCUMFERENCE|||DECUBITUS||MET|||LB|NOT DONE||SCALP|IPSILATERAL|N|Y|NA|||Y|1||38||CONTINUATION TREATMENT|1962-12-09||||1972-03-25||1965-05-23
TRIAL STUDY 134XCP|VS|CAD0ED37-954A-4935-8A7E-589EC108E141|2|||ABSKNF|ABDOMINAL SKINFOLD THICKNESS|||LATERAL DECUBITUS||HZ|||PA|NOT DONE||BLOOD|BILATERAL|N|U|N|||N|1||38||SCREENING|1961-12-12||||1963-08-18||1970-11-24
TRIAL STUDY 134XCP|VS|CAD0ED37-954A-4935-8A7E-589EC108E141|1|||WAISTHIP|WAIST TO HIP RATIO|||SEMI-RECUMBENT||M|||IN|NOT DONE||GENITAL TUBERCLE|UNILATERAL|N|N|Y|||Y|2||58||OPEN LABEL TREATMENT|1971-05-01||||1965-11-04||1960-06-24
TRIAL STUDY 134XCP|VS|CAD0ED37-954A-4935-8A7E-589EC108E141|2|||OXYSAT|OXYGEN SATURATION|||LEFT LATERAL DECUBITUS||C|||CM|NOT DONE||DISTAL INTERPHALANGEAL JOINT 2|LEFT|Y|N|U|||N|2||58||INDUCTION TREATMENT|1965-02-14||||1965-09-14||1961-08-24
TRIAL STUDY 134XCP|VS|CAD0ED37-954A-4935-8A7E-589EC108E141|1|||SYSBP|SYSTOLIC BLOOD PRESSURE|||STANDING||IN|||KG/M2|NOT DONE||ARM SKIN|IPSILATERAL|U|Y|NA|||NA|3||39||INDUCTION TREATMENT|1970-04-12||||1961-02-27||1970-03-04
TRIAL STUDY 134XCP|VS|CAD0ED37-954A-4935-8A7E-589EC108E141|2|||MAP|MEAN ARTERIAL PRESSURE|||PRONE||CMHG|||MET|NOT DONE||CARPOMETACARPAL JOINT 3|RIGHT|Y|N|N|||U|3||39||CONTINUATION TREATMENT|1973-02-14||||1962-08-20||1966-09-03
TRIAL STUDY 134XCP|VS|CAD0ED37-954A-4935-8A7E-589EC108E141|1|||TEMPPB|PERIPHERAL BODY TEMPERATURE|||STANDING||KG|||CM|NOT DONE||COLON, LEFT|LEFT|Y|N|NA|||U|4||88||WASHOUT|1963-02-13||||1965-01-15||1969-09-01
TRIAL STUDY 134XCP|VS|CAD0ED37-954A-4935-8A7E-589EC108E141|2|||ULNARL|ULNAR LENGTH|||SLING||%|||BREATHS/MIN|NOT DONE||ELBOW JOINT|IPSILATERAL|U|NA|NA|||NA|4||88||RUN-IN|1973-04-07||||1960-05-19||1971-08-20
TRIAL STUDY 134XCP|VS|CAD0ED37-954A-4935-8A7E-589EC108E141|1|||SAO2FIO2|OXYGEN SATURATION/FRACTION INSPIRED O2|||RIGHT LATERAL DECUBITUS||BREATHS/MIN|||KCAL/DAY|NOT DONE||HAMSTRING MUSCLE|CONTRALATERAL|Y|U|NA|||NA|5||7||OBSERVATION|1967-09-13||||1961-06-08||1960-12-08
TRIAL STUDY 134XCP|VS|CAD0ED37-954A-4935-8A7E-589EC108E141|2|||OXYSAT|OXYGEN SATURATION|||PRONE||F|||MET|NOT DONE||FACIAL NERVE|LATERAL|Y|U|U|||N|5||7||FOLLOW-UP|1969-11-06||||1973-07-02||1961-11-04
TRIAL STUDY 134XCP|VS|BC9A31E2-100C-4AC3-8910-A04309854590|1|||BMR|BASAL METABOLIC RATE|||RIGHT LATERAL DECUBITUS||IN|||M|NOT DONE||DISTAL PHALANX 3 OF THE HAND|BILATERAL|U|NA|N|||NA|1||38||OPEN LABEL TREATMENT|1969-12-10||||1966-07-31||1961-12-11
TRIAL STUDY 134XCP|VS|BC9A31E2-100C-4AC3-8910-A04309854590|2|||SBPHPCTL|SYSTOLIC BP-FOR-HEIGHT PERCENTILE|||LATERAL DECUBITUS||PA|||KCAL/DAY|NOT DONE||PROXIMAL INTERPHALANGEAL JOINT 3 OF THE HAND|RIGHT|N|NA|Y|||N|1||38||OBSERVATION|1968-04-23||||1968-11-15||1967-11-09
TRIAL STUDY 134XCP|VS|BC9A31E2-100C-4AC3-8910-A04309854590|1|||HIPCIR|HIP CIRCUMFERENCE|||PRONE||CMHG|||K|NOT DONE||PARASYMPATHETIC GANGLIA|RIGHT|NA|NA|N|||N|2||58||WASHOUT|1965-01-27||||1960-06-08||1969-08-17
TRIAL STUDY 134XCP|VS|BC9A31E2-100C-4AC3-8910-A04309854590|2|||WSTCIR|WAIST CIRCUMFERENCE|||SUPINE||%|||BEATS/MIN|NOT DONE||DISTAL INTERPHALANGEAL JOINT 2|UNILATERAL|NA|N|NA|||NA|2||58||SCREENING|1972-04-16||||1971-11-15||1966-07-05
TRIAL STUDY 134XCP|VS|BC9A31E2-100C-4AC3-8910-A04309854590|1|||FTHR|FETAL HEART RATE|||UNCONSTRAINED||MET|||PA|NOT DONE||SEBACEOUS GLAND|LEFT|N|NA|Y|||NA|3||39||BASELINE|1966-06-16||||1962-07-09||1961-02-28
TRIAL STUDY 134XCP|VS|BC9A31E2-100C-4AC3-8910-A04309854590|2|||SYSBP|SYSTOLIC BLOOD PRESSURE|||FOWLERS||F|||F|NOT DONE||RECTOSIGMOID JUNCTION|UNILATERAL|NA|U|NA|||U|3||39||CONTINUATION TREATMENT|1970-02-28||||1973-07-10||1965-07-12
TRIAL STUDY 134XCP|VS|BC9A31E2-100C-4AC3-8910-A04309854590|1|||MANDL|MANDIBULAR LENGTH|||LATERAL DECUBITUS||MMHG|||C|NOT DONE||TRICUSPID VALVE|CONTRALATERAL|NA|NA|Y|||Y|4||88||SCREENING|1970-09-15||||1960-09-04||1962-09-11
TRIAL STUDY 134XCP|VS|BC9A31E2-100C-4AC3-8910-A04309854590|2|||TEMPPB|PERIPHERAL BODY TEMPERATURE|||DECUBITUS||MET|||MMHG|NOT DONE||HEART, RIGHT ATRIUM|BILATERAL|U|U|U|||NA|4||88||INDUCTION TREATMENT|1967-12-31||||1971-12-26||1962-03-11
TRIAL STUDY 134XCP|VS|BC9A31E2-100C-4AC3-8910-A04309854590|1|||FARMCIR|FOREARM CIRCUMFERENCE|||RIGHT LATERAL DECUBITUS||KG|||KCAL/DAY|NOT DONE||METACARPAL BONE 1|LEFT|U|U|N|||NA|5||7||LONG-TERM FOLLOW-UP|1964-09-24||||1970-09-24||1961-05-18
TRIAL STUDY 134XCP|VS|BC9A31E2-100C-4AC3-8910-A04309854590|2|||CRWNHEEL|CROWN-TO-HEEL LENGTH|||RIGHT LATERAL DECUBITUS||MM|||BREATHS/MIN|NOT DONE||SACRUM|LATERAL|Y|Y|N|||NA|5||7||OPEN LABEL TREATMENT|1964-03-11||||1961-06-25||1963-12-16
TRIAL STUDY 134XCP|VS|13A424BB-CC85-41EC-BDED-165A29532DFF|1|||HR|HEART RATE|||LEFT LATERAL DECUBITUS||M2|||CMHG|NOT DONE||PENIS, BODY|LATERAL|Y|U|Y|||Y|1||38||LONG-TERM FOLLOW-UP|1962-11-12||||1970-11-16||1971-01-17
TRIAL STUDY 134XCP|VS|13A424BB-CC85-41EC-BDED-165A29532DFF|2|||WEIGHT|WEIGHT|||FOWLERS||RATIO|||M2|NOT DONE||UTERINE ARTERY|LATERAL|N|NA|NA|||NA|1||38||INDUCTION TREATMENT|1973-03-19||||1960-06-05||1967-12-18
TRIAL STUDY 134XCP|VS|13A424BB-CC85-41EC-BDED-165A29532DFF|1|||ULNARL|ULNAR LENGTH|||UNCONSTRAINED||F|||WATT|NOT DONE||GLOMERULUS|RIGHT|Y|Y|U|||Y|2||58||OBSERVATION|1960-02-06||||1973-05-05||1962-10-22
TRIAL STUDY 134XCP|VS|13A424BB-CC85-41EC-BDED-165A29532DFF|2|||BMR|BASAL METABOLIC RATE|||RIGHT LATERAL DECUBITUS||BEATS/MIN|||M2|NOT DONE||BULBAR CONJUNCTIVA|RIGHT|Y|Y|U|||NA|2||58||LONG-TERM FOLLOW-UP|1963-05-17||||1972-03-25||1965-08-25
TRIAL STUDY 134XCP|VS|13A424BB-CC85-41EC-BDED-165A29532DFF|1|||FTHDCIRC|FETAL HEAD CIRCUMFERENCE|||FOWLERS||MM|||WATT|NOT DONE||LEFT CIRCUMFLEX ARTERY OSTIUM|LEFT|U|N|N|||NA|3||39||INDUCTION TREATMENT|1964-09-08||||1965-06-27||1971-10-30
TRIAL STUDY 134XCP|VS|13A424BB-CC85-41EC-BDED-165A29532DFF|2|||MANDL|MANDIBULAR LENGTH|||SEMI-RECUMBENT||BEATS/MIN|||F|NOT DONE||THORACIC ARTERY|IPSILATERAL|NA|N|NA|||U|3||39||FOLLOW-UP|1966-01-21||||1963-08-02||1963-01-10
TRIAL STUDY 134XCP|VS|13A424BB-CC85-41EC-BDED-165A29532DFF|1|||FTWTGAPL|FETAL WEIGHT-FOR-GEST AGE PERCENTILE|||FOWLERS||M|||RATIO|NOT DONE||COLON, SPLENIC FLEXURE|LEFT|NA|Y|NA|||NA|4||88||WASHOUT|1971-11-03||||1966-03-10||1965-08-31
TRIAL STUDY 134XCP|VS|13A424BB-CC85-41EC-BDED-165A29532DFF|2|||SBPAPCTL|SYSTOLIC BP-FOR-AGE PERCENTILE|||RIGHT LATERAL DECUBITUS||K|||K|NOT DONE||CHEEK|CONTRALATERAL|U|NA|N|||N|4||88||FOLLOW-UP|1960-06-06||||1966-12-18||1962-11-26
TRIAL STUDY 134XCP|VS|13A424BB-CC85-41EC-BDED-165A29532DFF|1|||INTP|INTERPRETATION|||LEFT LATERAL DECUBITUS||G|||HZ|NOT DONE||UTERINE ARTERY|LATERAL|Y|N|N|||NA|5||7||BLINDED TREATMENT|1962-09-13||||1965-06-27||1965-04-05
TRIAL STUDY 134XCP|VS|13A424BB-CC85-41EC-BDED-165A29532DFF|2|||BSA|BODY SURFACE AREA|||LATERAL DECUBITUS||M2|||MET|NOT DONE||QUADRICEPS MUSCLE|RIGHT|Y|U|N|||N|5||7||OPEN LABEL TREATMENT|1967-05-15||||1967-12-17||1963-03-07
TRIAL STUDY 134XCP|VS|154D9D23-8ABD-4B69-90A1-A3D96F4743F3|1|||CPLRFLT|CAPILLARY REFILL TIME|||DECUBITUS||MM|||PA|NOT DONE||THORACIC LYMPH NODE|LATERAL|U|U|N|||N|1||38||SCREENING|1969-05-19||||1965-06-25||1961-12-22
TRIAL STUDY 134XCP|VS|154D9D23-8ABD-4B69-90A1-A3D96F4743F3|2|||MAXPREHR|MAXIMUM PREDICTED HEART RATE|||FOWLERS||MM|||CM|NOT DONE||CARPOMETACARPAL JOINT 5|LATERAL|NA|Y|U|||N|1||38||FOLLOW-UP|1965-12-28||||1970-03-20||1966-04-11
TRIAL STUDY 134XCP|VS|154D9D23-8ABD-4B69-90A1-A3D96F4743F3|1|||LBM|LEAN BODY MASS|||STANDING, BENT FORWARD||KG/M2|||C|NOT DONE||PROXIMAL PHALANX 1 OF THE HAND|BILATERAL|NA|NA|U|||NA|2||58||CONTINUATION TREATMENT|1970-08-08||||1969-08-14||1969-10-15
TRIAL STUDY 134XCP|VS|154D9D23-8ABD-4B69-90A1-A3D96F4743F3|2|||TRSKNF|TRICEPS SKINFOLD THICKNESS|||SUPINE||M2|||BEATS/MIN|NOT DONE||CORONARY VEIN|BILATERAL|NA|Y|NA|||U|2||58||RUN-IN|1967-05-27||||1960-02-16||1973-03-02
TRIAL STUDY 134XCP|VS|154D9D23-8ABD-4B69-90A1-A3D96F4743F3|1|||PULSEPR|PULSE PRESSURE|||LATERAL DECUBITUS||KG|||M2|NOT DONE||RETROPERITONEAL LYMPH NODE|BILATERAL|NA|NA|N|||N|3||39||FOLLOW-UP|1973-03-12||||1971-09-03||1960-12-21
TRIAL STUDY 134XCP|VS|154D9D23-8ABD-4B69-90A1-A3D96F4743F3|2|||FARMCIR|FOREARM CIRCUMFERENCE|||SITTING, LEGS DEPENDENT||HZ|||KCAL/DAY|NOT DONE||CAUDAL VERTEBRA|BILATERAL|N|NA|Y|||NA|3||39||LONG-TERM FOLLOW-UP|1966-12-29||||1966-02-21||1964-05-02
TRIAL STUDY 134XCP|VS|154D9D23-8ABD-4B69-90A1-A3D96F4743F3|1|||PULSE|PULSE RATE|||UNCONSTRAINED||KG|||MM|NOT DONE||MASTOID PROCESS|LEFT|N|NA|NA|||U|4||88||INDUCTION TREATMENT|1963-09-26||||1969-03-31||1970-04-24
TRIAL STUDY 134XCP|VS|154D9D23-8ABD-4B69-90A1-A3D96F4743F3|2|||BMIAPCTL|BMI-FOR-AGE PERCENTILE|||SITTING||MM|||G|NOT DONE||MALE GENITALIA|IPSILATERAL|Y|NA|U|||N|4||88||RUN-IN|1967-12-29||||1970-10-14||1960-01-09
TRIAL STUDY 134XCP|VS|154D9D23-8ABD-4B69-90A1-A3D96F4743F3|1|||FTWTGAPL|FETAL WEIGHT-FOR-GEST AGE PERCENTILE|||FOWLERS||KG|||PA|NOT DONE||DISTAL INTERPHALANGEAL JOINT 3 OF THE FOOT|LEFT|U|U|N|||U|5||7||BASELINE|1968-08-30||||1965-11-20||1965-10-28
TRIAL STUDY 134XCP|VS|154D9D23-8ABD-4B69-90A1-A3D96F4743F3|2|||HTAPCTL|HEIGHT-FOR-AGE PERCENTILE|||PRONE||BREATHS/MIN|||G|NOT DONE||SENSORIMOTOR CORTEX|UNILATERAL|N|Y|U|||NA|5||7||RUN-IN|1967-04-25||||1969-09-16||1970-08-01
TRIAL STUDY 134XCP|VS|059FE504-DEE4-4E24-AA80-3C64264636BF|1|||IDEALWT|IDEAL BODY WEIGHT|||SEMI-FOWLERS||M2|||M2|NOT DONE||CANINE TOOTH|LEFT|U|U|U|||NA|1||38||TREATMENT|1962-08-19||||1968-09-13||1965-04-13
TRIAL STUDY 134XCP|VS|059FE504-DEE4-4E24-AA80-3C64264636BF|2|||MAP|MEAN ARTERIAL PRESSURE|||UNCONSTRAINED||WATT|||MM|NOT DONE||BLADDER, FUNDUS|UNILATERAL|U|U|NA|||NA|1||38||OBSERVATION|1965-08-31||||1966-12-19||1968-08-07
TRIAL STUDY 134XCP|VS|059FE504-DEE4-4E24-AA80-3C64264636BF|1|||EWEIGHT|ESTIMATED WEIGHT|||UNCONSTRAINED||IN|||CMHG|NOT DONE||ETHMOID BONE|CONTRALATERAL|N|U|Y|||U|2||58||RUN-IN|1970-01-26||||1963-09-16||1967-02-21
TRIAL STUDY 134XCP|VS|059FE504-DEE4-4E24-AA80-3C64264636BF|2|||PULSE|PULSE RATE|||DECUBITUS||MM|||KCAL/DAY|NOT DONE||UTERUS|LATERAL|NA|Y|NA|||U|2||58||OBSERVATION|1968-03-04||||1966-05-10||1964-10-06
TRIAL STUDY 134XCP|VS|059FE504-DEE4-4E24-AA80-3C64264636BF|1|||WAISTHIP|WAIST TO HIP RATIO|||SITTING, LEGS DEPENDENT||BEATS/MIN|||MMHG|NOT DONE||GREAT VESSELS|CONTRALATERAL|NA|Y|Y|||Y|3||39||CONTINUATION TREATMENT|1973-07-23||||1961-03-20||1971-01-20
TRIAL STUDY 134XCP|VS|059FE504-DEE4-4E24-AA80-3C64264636BF|2|||MUARMCIR|MID-UPPER ARM CIRCUMFERENCE|||LATERAL DECUBITUS||M|||MM|NOT DONE||COSTAL CARTILAGE|IPSILATERAL|N|N|Y|||NA|3||39||TREATMENT|1969-05-06||||1972-09-24||1961-01-05
TRIAL STUDY 134XCP|VS|059FE504-DEE4-4E24-AA80-3C64264636BF|1|||SAO2FIO2|OXYGEN SATURATION/FRACTION INSPIRED O2|||STANDING||%|||KG/M2|NOT DONE||KIDNEY, MEDULLA|CONTRALATERAL|N|Y|NA|||NA|4||88||WASHOUT|1961-07-17||||1972-04-30||1964-10-09
TRIAL STUDY 134XCP|VS|059FE504-DEE4-4E24-AA80-3C64264636BF|2|||PULSE|PULSE RATE|||SITTING||F|||K|NOT DONE||MESENTERIC LYMPH NODE|RIGHT|Y|N|U|||NA|4||88||TREATMENT|1963-07-26||||1961-06-21||1968-10-23
TRIAL STUDY 134XCP|VS|059FE504-DEE4-4E24-AA80-3C64264636BF|1|||FTSAD|FETAL SAGITTAL ABDOMINAL DIAMETER|||UNCONSTRAINED||K|||LB|NOT DONE||QUADRICEPS MUSCLE|CONTRALATERAL|U|Y|U|||NA|5||7||INDUCTION TREATMENT|1963-06-07||||1963-06-01||1970-08-23
TRIAL STUDY 134XCP|VS|059FE504-DEE4-4E24-AA80-3C64264636BF|2|||MUARMCIR|MID-UPPER ARM CIRCUMFERENCE|||FOWLERS||F|||M2|NOT DONE||PARASPINAL REGION|UNILATERAL|Y|NA|Y|||N|5||7||BLINDED TREATMENT|1968-12-27||||1969-05-21||1973-08-13
TRIAL STUDY 134XCP|VS|3F806ADA-68C3-42AD-9DB7-2CA8E3A9F236|1|||RESP|RESPIRATORY RATE|||REVERSE TRENDELENBURG||MM|||MM|NOT DONE||LOWER JUGULAR LYMPH NODE|LEFT|U|Y|NA|||U|1||38||RUN-IN|1960-02-03||||1969-08-07||1969-05-11
TRIAL STUDY 134XCP|VS|3F806ADA-68C3-42AD-9DB7-2CA8E3A9F236|2|||HEIGHT|HEIGHT|||RIGHT LATERAL DECUBITUS||LB|||MET|NOT DONE||METATARSOPHALANGEAL JOINT 2|IPSILATERAL|Y|U|U|||Y|1||38||CONTINUATION TREATMENT|1972-11-29||||1960-10-31||1961-07-17
TRIAL STUDY 134XCP|VS|3F806ADA-68C3-42AD-9DB7-2CA8E3A9F236|1|||IDEALWT|IDEAL BODY WEIGHT|||SLING||M2|||KG/M2|NOT DONE||PORTAL VEIN BIFURCATION|IPSILATERAL|U|Y|NA|||Y|2||58||WASHOUT|1962-05-07||||1963-08-26||1971-07-22
TRIAL STUDY 134XCP|VS|3F806ADA-68C3-42AD-9DB7-2CA8E3A9F236|2|||SAD|SAGITTAL ABDOMINAL DIAMETER|||LATERAL DECUBITUS||BEATS/MIN|||MET|NOT DONE||METATARSOPHALANGEAL JOINT 2|LATERAL|N|U|Y|||U|2||58||RUN-IN|1961-03-23||||1973-09-03||1964-05-06
TRIAL STUDY 134XCP|VS|3F806ADA-68C3-42AD-9DB7-2CA8E3A9F236|1|||MUARMCIR|MID-UPPER ARM CIRCUMFERENCE|||DECUBITUS||MM|||CM|NOT DONE||BASAL GANGLIA|CONTRALATERAL|U|N|U|||U|3||39||SCREENING|1961-04-03||||1960-07-23||1970-05-31
TRIAL STUDY 134XCP|VS|3F806ADA-68C3-42AD-9DB7-2CA8E3A9F236|2|||DBPAPCTL|DIASTOLIC BP-FOR-AGE PERCENTILE|||UNCONSTRAINED||KCAL/DAY|||F|NOT DONE||SARTORIUS MUSCLE|UNILATERAL|NA|NA|N|||NA|3||39||OPEN LABEL TREATMENT|1971-12-26||||1962-05-18||1973-09-01
TRIAL STUDY 134XCP|VS|3F806ADA-68C3-42AD-9DB7-2CA8E3A9F236|1|||ENRGEXP|ENERGY EXPENDITURE|||SITTING, LEGS DEPENDENT||IN|||KG/M2|NOT DONE||UVEA|BILATERAL|N|N|NA|||U|4||88||OPEN LABEL TREATMENT|1972-12-11||||1972-01-13||1970-04-19
TRIAL STUDY 134XCP|VS|3F806ADA-68C3-42AD-9DB7-2CA8E3A9F236|2|||EWEIGHT|ESTIMATED WEIGHT|||LEFT LATERAL DECUBITUS||KCAL/DAY|||MM|NOT DONE||LINGULA OF THE LUNG|BILATERAL|N|Y|NA|||N|4||88||WASHOUT|1960-06-06||||1964-02-22||1965-01-12
TRIAL STUDY 134XCP|VS|3F806ADA-68C3-42AD-9DB7-2CA8E3A9F236|1|||FTSAD|FETAL SAGITTAL ABDOMINAL DIAMETER|||STANDING||KG/M2|||BREATHS/MIN|NOT DONE||EPITROCHLEAR LYMPH NODE|CONTRALATERAL|NA|U|U|||N|5||7||OPEN LABEL TREATMENT|1965-06-07||||1960-09-28||1970-09-20
TRIAL STUDY 134XCP|VS|3F806ADA-68C3-42AD-9DB7-2CA8E3A9F236|2|||WSTCIR|WAIST CIRCUMFERENCE|||SITTING||M|||WATT|NOT DONE||ESOPHAGUS, THORACIC|RIGHT|NA|NA|Y|||N|5||7||LONG-TERM FOLLOW-UP|1965-01-17||||1969-07-07||1967-04-06
TRIAL STUDY 134XCP|VS|69BCF810-6748-43AA-BDFC-64EE1536CB47|1|||RESP|RESPIRATORY RATE|||STANDING, BENT FORWARD||K|||M2|NOT DONE||TENTORIUM CEREBELLI|IPSILATERAL|NA|U|NA|||U|1||38||INDUCTION TREATMENT|1962-01-04||||1962-12-30||1966-03-28
TRIAL STUDY 134XCP|VS|69BCF810-6748-43AA-BDFC-64EE1536CB47|2|||INTP|INTERPRETATION|||FOWLERS||MM|||F|NOT DONE||ULNA SHAFT|RIGHT|N|NA|N|||Y|1||38||CONTINUATION TREATMENT|1967-11-06||||1968-10-08||1970-03-09
TRIAL STUDY 134XCP|VS|69BCF810-6748-43AA-BDFC-64EE1536CB47|1|||HEIGHT|HEIGHT|||UNCONSTRAINED||WATT|||C|NOT DONE||ELBOW JOINT|BILATERAL|Y|U|U|||Y|2||58||TREATMENT|1968-01-14||||1972-12-12||1962-09-12
TRIAL STUDY 134XCP|VS|69BCF810-6748-43AA-BDFC-64EE1536CB47|2|||CHESTCIR|CHEST CIRCUMFERENCE|||SEMI-FOWLERS||MM|||KG/M2|NOT DONE||LOWER JUGULAR LYMPH NODE|UNILATERAL|NA|Y|NA|||Y|2||58||BASELINE|1961-06-19||||1968-01-20||1967-06-11
TRIAL STUDY 134XCP|VS|69BCF810-6748-43AA-BDFC-64EE1536CB47|1|||CHESTCIR|CHEST CIRCUMFERENCE|||SLING||LB|||MMHG|NOT DONE||SYNOVIAL FLUID|LEFT|N|N|Y|||NA|3||39||WASHOUT|1969-10-08||||1963-05-13||1965-03-21
TRIAL STUDY 134XCP|VS|69BCF810-6748-43AA-BDFC-64EE1536CB47|2|||CPLRFLT|CAPILLARY REFILL TIME|||LEFT LATERAL DECUBITUS||MM|||M2|NOT DONE||PHARYNGEAL TONSIL|UNILATERAL|NA|NA|NA|||U|3||39||INDUCTION TREATMENT|1971-09-15||||1962-05-15||1965-09-27
TRIAL STUDY 134XCP|VS|69BCF810-6748-43AA-BDFC-64EE1536CB47|1|||OXYSAT|OXYGEN SATURATION|||STANDING, BENT FORWARD||KCAL/DAY|||BEATS/MIN|NOT DONE||LUNG, LEFT|LATERAL|NA|N|NA|||N|4||88||OBSERVATION|1962-05-31||||1965-04-21||1964-01-10
TRIAL STUDY 134XCP|VS|69BCF810-6748-43AA-BDFC-64EE1536CB47|2|||MAP|MEAN ARTERIAL PRESSURE|||LEFT LATERAL DECUBITUS||M2|||BREATHS/MIN|NOT DONE||T2 VERTEBRA|LEFT|Y|N|NA|||Y|4||88||TREATMENT|1967-06-08||||1961-11-27||1970-03-24
TRIAL STUDY 134XCP|VS|69BCF810-6748-43AA-BDFC-64EE1536CB47|1|||HDCIRC|HEAD CIRCUMFERENCE|||SLING||BREATHS/MIN|||MET|NOT DONE||CARPOMETACARPAL JOINT|LATERAL|N|U|U|||U|5||7||LONG-TERM FOLLOW-UP|1971-10-12||||1966-06-22||1970-09-24
TRIAL STUDY 134XCP|VS|69BCF810-6748-43AA-BDFC-64EE1536CB47|2|||RESP|RESPIRATORY RATE|||UNCONSTRAINED||RATIO|||KG/M2|NOT DONE||METATARSOPHALANGEAL JOINT 1|BILATERAL|NA|NA|Y|||Y|5||7||SCREENING|1965-03-09||||1966-12-18||1965-11-07
TRIAL STUDY 134XCP|VS|DCE71DE9-8DFB-4796-BC41-21930EC21925|1|||INTP|INTERPRETATION|||RIGHT LATERAL DECUBITUS||BREATHS/MIN|||MM|NOT DONE||FUNDUS OF THE EYE|CONTRALATERAL|U|Y|N|||NA|1||38||OBSERVATION|1966-04-09||||1962-10-21||1968-03-12
TRIAL STUDY 134XCP|VS|DCE71DE9-8DFB-4796-BC41-21930EC21925|2|||INTP|INTERPRETATION|||STANDING, BENT FORWARD||KG/M2|||IN|NOT DONE||DISTAL INTERPHALANGEAL JOINT 4 OF THE HAND|CONTRALATERAL|U|Y|Y|||U|1||38||OBSERVATION|1968-09-06||||1971-04-13||1960-08-02
TRIAL STUDY 134XCP|VS|DCE71DE9-8DFB-4796-BC41-21930EC21925|1|||IDEALWT|IDEAL BODY WEIGHT|||TRENDELENBURG||WATT|||MET|NOT DONE||HILAR LYMPH NODE|LATERAL|N|U|N|||U|2||58||BASELINE|1967-03-03||||1965-11-12||1971-02-01
TRIAL STUDY 134XCP|VS|DCE71DE9-8DFB-4796-BC41-21930EC21925|2|||FARMCIR|FOREARM CIRCUMFERENCE|||SEMI-FOWLERS||M2|||WATT|NOT DONE||POPLITEAL ARTERY ABOVE KNEE|BILATERAL|NA|Y|N|||U|2||58||OPEN LABEL TREATMENT|1964-09-06||||1960-06-14||1962-09-02
TRIAL STUDY 134XCP|VS|DCE71DE9-8DFB-4796-BC41-21930EC21925|1|||SYSBP|SYSTOLIC BLOOD PRESSURE|||LEFT LATERAL DECUBITUS||M2|||MMHG|NOT DONE||RADIUS|IPSILATERAL|U|N|Y|||NA|3||39||SCREENING|1966-10-26||||1964-10-30||1960-01-09
TRIAL STUDY 134XCP|VS|DCE71DE9-8DFB-4796-BC41-21930EC21925|2|||HEIGHT|HEIGHT|||SLING||BREATHS/MIN|||CM|NOT DONE||INSULAR CORTEX|BILATERAL|N|N|N|||U|3||39||RUN-IN|1961-06-13||||1961-03-15||1965-10-29
TRIAL STUDY 134XCP|VS|DCE71DE9-8DFB-4796-BC41-21930EC21925|1|||DIABP|DIASTOLIC BLOOD PRESSURE|||STANDING, BENT FORWARD||HZ|||MET|NOT DONE||CALF MUSCULAR VEIN|RIGHT|U|N|Y|||N|4||88||SCREENING|1968-11-04||||1961-04-03||1970-10-23
TRIAL STUDY 134XCP|VS|DCE71DE9-8DFB-4796-BC41-21930EC21925|2|||SAO2FIO2|OXYGEN SATURATION/FRACTION INSPIRED O2|||SLING||IN|||MM|NOT DONE||RIGHT POSTERIOR DESCENDING ARTERY|BILATERAL|N|U|Y|||Y|4||88||BLINDED TREATMENT|1971-03-07||||1967-12-27||1970-10-22
TRIAL STUDY 134XCP|VS|DCE71DE9-8DFB-4796-BC41-21930EC21925|1|||HDCIRC|HEAD CIRCUMFERENCE|||PRONE||KG|||HZ|NOT DONE||METACARPOPHALANGEAL JOINT 5|IPSILATERAL|U|U|NA|||N|5||7||INDUCTION TREATMENT|1960-10-29||||1969-08-14||1968-10-31
TRIAL STUDY 134XCP|VS|DCE71DE9-8DFB-4796-BC41-21930EC21925|2|||EWEIGHT|ESTIMATED WEIGHT|||TRENDELENBURG||KG/M2|||G|NOT DONE||POPLITEAL VEIN|IPSILATERAL|NA|Y|Y|||Y|5||7||LONG-TERM FOLLOW-UP|1969-06-28||||1963-09-29||1967-03-14
TRIAL STUDY 134XCP|VS|9EE46F65-A7A1-4D18-A685-BC2EF905CC19|1|||MANDL|MANDIBULAR LENGTH|||TRENDELENBURG||KG|||M|NOT DONE||LUNG|BILATERAL|Y|Y|Y|||Y|1||38||RUN-IN|1967-02-23||||1966-08-16||1973-07-31
TRIAL STUDY 134XCP|VS|9EE46F65-A7A1-4D18-A685-BC2EF905CC19|2|||ABSKNF|ABDOMINAL SKINFOLD THICKNESS|||TRENDELENBURG||K|||IN|NOT DONE||THROAT|IPSILATERAL|N|NA|U|||NA|1||38||FOLLOW-UP|1963-12-12||||1966-02-10||1963-05-11
TRIAL STUDY 134XCP|VS|9EE46F65-A7A1-4D18-A685-BC2EF905CC19|1|||PULSE|PULSE RATE|||STANDING, BENT FORWARD||HZ|||MET|NOT DONE||METACARPAL BONE 2|CONTRALATERAL|U|NA|U|||U|2||58||RUN-IN|1960-09-10||||1963-10-28||1962-08-25
TRIAL STUDY 134XCP|VS|9EE46F65-A7A1-4D18-A685-BC2EF905CC19|2|||DBPHPCTL|DIASTOLIC BP-FOR-HEIGHT PERCENTILE|||UNCONSTRAINED||RATIO|||M|NOT DONE||MITRAL VALVE, ANTERIOR CUSP|LEFT|NA|NA|Y|||N|2||58||OPEN LABEL TREATMENT|1963-01-07||||1964-01-12||1963-09-18
TRIAL STUDY 134XCP|VS|9EE46F65-A7A1-4D18-A685-BC2EF905CC19|1|||TEMPCB|CORE BODY TEMPERATURE|||RIGHT LATERAL DECUBITUS||KG|||CM|NOT DONE||ENDOCERVIX|BILATERAL|U|NA|N|||Y|3||39||LONG-TERM FOLLOW-UP|1966-05-30||||1970-03-28||1961-10-10
TRIAL STUDY 134XCP|VS|9EE46F65-A7A1-4D18-A685-BC2EF905CC19|2|||HTAPCTL|HEIGHT-FOR-AGE PERCENTILE|||LEFT LATERAL DECUBITUS||CMHG|||M|NOT DONE||SUBCLAVIAN VEIN|IPSILATERAL|N|NA|N|||U|3||39||BLINDED TREATMENT|1972-09-22||||1969-05-01||1964-01-29
TRIAL STUDY 134XCP|VS|9EE46F65-A7A1-4D18-A685-BC2EF905CC19|1|||LBM|LEAN BODY MASS|||TRENDELENBURG||CMHG|||MMHG|NOT DONE||CORONARY ARTERY, RIGHT|UNILATERAL|NA|N|Y|||N|4||88||CONTINUATION TREATMENT|1964-09-15||||1962-01-21||1962-09-02
TRIAL STUDY 134XCP|VS|9EE46F65-A7A1-4D18-A685-BC2EF905CC19|2|||FTMANDL|FETAL MANDIBULAR LENGTH|||UNCONSTRAINED||RATIO|||CMHG|NOT DONE||GASTROCNEMIUS MUSCLE, LATERAL HEAD|LEFT|U|N|N|||U|4||88||WASHOUT|1970-08-23||||1961-01-07||1966-08-07
TRIAL STUDY 134XCP|VS|9EE46F65-A7A1-4D18-A685-BC2EF905CC19|1|||MUARMCIR|MID-UPPER ARM CIRCUMFERENCE|||RIGHT LATERAL DECUBITUS||M|||IN|NOT DONE||IRIS|BILATERAL|NA|N|U|||Y|5||7||CONTINUATION TREATMENT|1966-05-25||||1971-05-12||1970-02-24
TRIAL STUDY 134XCP|VS|9EE46F65-A7A1-4D18-A685-BC2EF905CC19|2|||RESP|RESPIRATORY RATE|||LATERAL DECUBITUS||PA|||RATIO|NOT DONE||METACARPOPHALANGEAL JOINT 1|IPSILATERAL|Y|NA|Y|||Y|5||7||FOLLOW-UP|1963-07-18||||1970-01-30||1972-12-21
TRIAL STUDY 134XCP|VS|97D06076-FE6B-4C77-BD5C-2E665F707C7A|1|||FTEWT|FETAL ESTIMATED WEIGHT|||SUPINE||KCAL/DAY|||KG|NOT DONE||LUNG, RIGHT, INFERIOR LOBE, POSTERIOR BASAL SEGMENT|IPSILATERAL|NA|U|NA|||U|1||38||LONG-TERM FOLLOW-UP|1960-06-10||||1968-03-28||1966-04-02
TRIAL STUDY 134XCP|VS|97D06076-FE6B-4C77-BD5C-2E665F707C7A|2|||FTMANDL|FETAL MANDIBULAR LENGTH|||PRONE||G|||CMHG|NOT DONE||VASTUS MEDIALIS MUSCLE|LATERAL|Y|N|N|||NA|1||38||FOLLOW-UP|1970-05-30||||1964-04-11||1968-04-12
TRIAL STUDY 134XCP|VS|97D06076-FE6B-4C77-BD5C-2E665F707C7A|1|||SBPHPCTL|SYSTOLIC BP-FOR-HEIGHT PERCENTILE|||SEMI-FOWLERS||KCAL/DAY|||WATT|NOT DONE||FINGER EXTENSOR TENDONS|BILATERAL|Y|NA|U|||NA|2||58||FOLLOW-UP|1971-12-02||||1964-07-04||1963-05-16
TRIAL STUDY 134XCP|VS|97D06076-FE6B-4C77-BD5C-2E665F707C7A|2|||FTEWT|FETAL ESTIMATED WEIGHT|||PRONE||LB|||F|NOT DONE||AORTIC VALVE ANNULUS|IPSILATERAL|N|N|U|||NA|2||58||SCREENING|1973-06-04||||1960-06-26||1972-11-07
TRIAL STUDY 134XCP|VS|97D06076-FE6B-4C77-BD5C-2E665F707C7A|1|||TEMPPB|PERIPHERAL BODY TEMPERATURE|||LEFT LATERAL DECUBITUS||CM|||KCAL/DAY|NOT DONE||JAW|IPSILATERAL|U|N|U|||U|3||39||CONTINUATION TREATMENT|1971-04-20||||1965-10-06||1972-07-31
TRIAL STUDY 134XCP|VS|97D06076-FE6B-4C77-BD5C-2E665F707C7A|2|||WEIGHT|WEIGHT|||SITTING||KG/M2|||C|NOT DONE||LEFT ANTERIOR DESCENDING ARTERY OSTIUM|IPSILATERAL|N|Y|U|||NA|3||39||FOLLOW-UP|1972-12-17||||1964-08-01||1967-01-02
TRIAL STUDY 134XCP|VS|97D06076-FE6B-4C77-BD5C-2E665F707C7A|1|||OXYSAT|OXYGEN SATURATION|||SITTING, LEGS DEPENDENT||BREATHS/MIN|||WATT|NOT DONE||FUNDUS UTERI|LEFT|U|NA|U|||Y|4||88||FOLLOW-UP|1963-07-07||||1965-04-18||1962-12-13
TRIAL STUDY 134XCP|VS|97D06076-FE6B-4C77-BD5C-2E665F707C7A|2|||TEMPCB|CORE BODY TEMPERATURE|||REVERSE TRENDELENBURG||M|||MM|NOT DONE||THORAX|IPSILATERAL|Y|Y|N|||N|4||88||RUN-IN|1963-02-08||||1968-10-15||1973-06-07
TRIAL STUDY 134XCP|VS|97D06076-FE6B-4C77-BD5C-2E665F707C7A|1|||FTMANDL|FETAL MANDIBULAR LENGTH|||SUPINE||WATT|||MM|NOT DONE||CIRCUMFLEX, OBTUSE MARGINALS, LEFT POSTEROLATERAL AND LEFT POSTERIOR DESCENDING ARTERY BRANCHES|CONTRALATERAL|N|U|NA|||Y|5||7||OBSERVATION|1969-12-16||||1967-04-28||1964-04-23
TRIAL STUDY 134XCP|VS|97D06076-FE6B-4C77-BD5C-2E665F707C7A|2|||WSTCIR|WAIST CIRCUMFERENCE|||FOWLERS||F|||CM|NOT DONE||FLEXOR HALLUCIS BREVIS MUSCLE|LATERAL|NA|NA|N|||N|5||7||OPEN LABEL TREATMENT|1967-04-09||||1963-01-04||1972-09-08
TRIAL STUDY 134XCP|VS|E9E6E2D8-33F9-4769-B5F3-06ADB2926A9F|1|||HIPCIR|HIP CIRCUMFERENCE|||PRONE||KG/M2|||PA|NOT DONE||SUBMENTAL LYMPH NODE|LATERAL|Y|N|Y|||N|1||38||OPEN LABEL TREATMENT|1960-07-05||||1960-11-29||1967-12-02
TRIAL STUDY 134XCP|VS|E9E6E2D8-33F9-4769-B5F3-06ADB2926A9F|2|||BMR|BASAL METABOLIC RATE|||FOWLERS||PA|||MET|NOT DONE||MALLEUS|LATERAL|NA|NA|Y|||U|1||38||BASELINE|1967-05-04||||1963-04-01||1967-01-24
TRIAL STUDY 134XCP|VS|E9E6E2D8-33F9-4769-B5F3-06ADB2926A9F|1|||FTWTGAPL|FETAL WEIGHT-FOR-GEST AGE PERCENTILE|||SLING||M|||RATIO|NOT DONE||LIP, LOWER|UNILATERAL|NA|N|NA|||NA|2||58||INDUCTION TREATMENT|1966-07-25||||1961-08-18||1968-12-08
TRIAL STUDY 134XCP|VS|E9E6E2D8-33F9-4769-B5F3-06ADB2926A9F|2|||HTAPCTL|HEIGHT-FOR-AGE PERCENTILE|||LEFT LATERAL DECUBITUS||C|||C|NOT DONE||ACUTE MARGINAL ARTERY|LEFT|U|U|Y|||U|2||58||LONG-TERM FOLLOW-UP|1961-11-10||||1960-07-01||1962-02-17
TRIAL STUDY 134XCP|VS|E9E6E2D8-33F9-4769-B5F3-06ADB2926A9F|1|||FIO2|FRACTION OF INSPIRED OXYGEN|||SEMI-RECUMBENT||LB|||PA|NOT DONE||MANDIBLE|RIGHT|U|Y|Y|||N|3||39||RUN-IN|1963-12-10||||1969-08-17||1969-03-23
TRIAL STUDY 134XCP|VS|E9E6E2D8-33F9-4769-B5F3-06ADB2926A9F|2|||SAO2FIO2|OXYGEN SATURATION/FRACTION INSPIRED O2|||STANDING||CM|||M|NOT DONE||FINGERNAIL|LATERAL|N|Y|N|||U|3||39||FOLLOW-UP|1971-08-03||||1973-08-10||1967-12-23
TRIAL STUDY 134XCP|VS|E9E6E2D8-33F9-4769-B5F3-06ADB2926A9F|1|||BMR|BASAL METABOLIC RATE|||SEMI-FOWLERS||F|||BEATS/MIN|NOT DONE||LENS|CONTRALATERAL|U|NA|NA|||N|4||88||FOLLOW-UP|1963-09-10||||1964-04-20||1962-06-19
TRIAL STUDY 134XCP|VS|E9E6E2D8-33F9-4769-B5F3-06ADB2926A9F|2|||WSTCIR|WAIST CIRCUMFERENCE|||TRENDELENBURG||KCAL/DAY|||HZ|NOT DONE||METACARPAL 1 BASE|IPSILATERAL|NA|U|U|||Y|4||88||CONTINUATION TREATMENT|1964-06-28||||1966-11-22||1973-04-18
TRIAL STUDY 134XCP|VS|E9E6E2D8-33F9-4769-B5F3-06ADB2926A9F|1|||CHESTCIR|CHEST CIRCUMFERENCE|||FOWLERS||MET|||RATIO|NOT DONE||SKULL, BASE|CONTRALATERAL|NA|U|N|||NA|5||7||WASHOUT|1971-07-17||||1963-01-14||1965-07-31
TRIAL STUDY 134XCP|VS|E9E6E2D8-33F9-4769-B5F3-06ADB2926A9F|2|||FTHDCIRC|FETAL HEAD CIRCUMFERENCE|||UNCONSTRAINED||KG/M2|||K|NOT DONE||ULNAR ARTERY|IPSILATERAL|Y|Y|U|||NA|5||7||WASHOUT|1963-09-16||||1968-10-31||1971-10-31
TRIAL STUDY 134XCP|VS|D5A1EB38-77EA-49A5-84CA-740A83D258AF|1|||ULNARL|ULNAR LENGTH|||TRENDELENBURG||K|||CMHG|NOT DONE||THIRD POSTEROLATERAL DESCENDING ARTERY|UNILATERAL|N|Y|NA|||U|1||38||FOLLOW-UP|1968-02-19||||1968-05-20||1966-02-02
TRIAL STUDY 134XCP|VS|D5A1EB38-77EA-49A5-84CA-740A83D258AF|2|||SBPHPCTL|SYSTOLIC BP-FOR-HEIGHT PERCENTILE|||SITTING, LEGS DEPENDENT||RATIO|||MET|NOT DONE||INCISOR|LATERAL|U|NA|Y|||U|1||38||BLINDED TREATMENT|1966-01-13||||1963-04-03||1962-05-03
TRIAL STUDY 134XCP|VS|D5A1EB38-77EA-49A5-84CA-740A83D258AF|1|||HEIGHT|HEIGHT|||SITTING, LEGS DEPENDENT||MMHG|||M2|NOT DONE||FLEXOR DIGITORUM LONGUS MUSCLE|LATERAL|N|NA|Y|||NA|2||58||INDUCTION TREATMENT|1967-07-22||||1973-03-24||1971-09-12
TRIAL STUDY 134XCP|VS|D5A1EB38-77EA-49A5-84CA-740A83D258AF|2|||ULNARL|ULNAR LENGTH|||DECUBITUS||BEATS/MIN|||KG/M2|NOT DONE||ASCENDING AORTA, SINUS OF VALSALVA|RIGHT|N|NA|NA|||N|2||58||BASELINE|1972-09-02||||1972-08-07||1965-07-01
TRIAL STUDY 134XCP|VS|D5A1EB38-77EA-49A5-84CA-740A83D258AF|1|||MANDL|MANDIBULAR LENGTH|||SITTING, LEGS DEPENDENT||K|||MM|NOT DONE||PERIURETHRAL REGION|LATERAL|U|NA|N|||N|3||39||OBSERVATION|1961-09-09||||1971-03-17||1973-08-28
TRIAL STUDY 134XCP|VS|D5A1EB38-77EA-49A5-84CA-740A83D258AF|2|||FTHDCIRC|FETAL HEAD CIRCUMFERENCE|||SUPINE||M2|||KG/M2|NOT DONE||STERNEBRA|RIGHT|U|NA|NA|||NA|3||39||WASHOUT|1966-02-28||||1971-04-19||1964-06-29
TRIAL STUDY 134XCP|VS|D5A1EB38-77EA-49A5-84CA-740A83D258AF|1|||BODLNGTH|BODY LENGTH|||UNCONSTRAINED||%|||CMHG|NOT DONE||SKIN OF THE NECK|LEFT|NA|U|NA|||Y|4||88||LONG-TERM FOLLOW-UP|1967-04-03||||1966-12-17||1965-05-24
TRIAL STUDY 134XCP|VS|D5A1EB38-77EA-49A5-84CA-740A83D258AF|2|||BMR|BASAL METABOLIC RATE|||DECUBITUS||CMHG|||CM|NOT DONE||KIDNEY, CORTEX|RIGHT|U|NA|NA|||N|4||88||TREATMENT|1964-10-17||||1970-12-24||1964-12-13
TRIAL STUDY 134XCP|VS|D5A1EB38-77EA-49A5-84CA-740A83D258AF|1|||WTAPCTL|WEIGHT-FOR-AGE PERCENTILE|||SEMI-FOWLERS||MM|||LB|NOT DONE||MUCOSA OF THE LIP|LATERAL|U|N|NA|||U|5||7||SCREENING|1966-09-08||||1962-07-19||1960-09-13
TRIAL STUDY 134XCP|VS|D5A1EB38-77EA-49A5-84CA-740A83D258AF|2|||TEMPPB|PERIPHERAL BODY TEMPERATURE|||FOWLERS||BEATS/MIN|||M2|NOT DONE||MEDIAL FEMORAL CONDYLE|LATERAL|NA|N|NA|||NA|5||7||LONG-TERM FOLLOW-UP|1960-10-05||||1970-08-17||1966-04-29
TRIAL STUDY 134XCP|VS|5255639E-AC65-4DA8-85EF-4ABD53BAAED5|1|||FTEWT|FETAL ESTIMATED WEIGHT|||SLING||WATT|||KCAL/DAY|NOT DONE||MITRAL VALVE, POSTERIOR CUSP|LATERAL|Y|N|U|||N|1||38||BLINDED TREATMENT|1962-03-06||||1970-04-19||1969-10-10
TRIAL STUDY 134XCP|VS|5255639E-AC65-4DA8-85EF-4ABD53BAAED5|2|||MAP|MEAN ARTERIAL PRESSURE|||UNCONSTRAINED||PA|||RATIO|NOT DONE||FEMALE REPRODUCTIVE SYSTEM|LATERAL|Y|Y|Y|||Y|1||38||TREATMENT|1966-07-27||||1962-10-03||1966-09-22
TRIAL STUDY 134XCP|VS|5255639E-AC65-4DA8-85EF-4ABD53BAAED5|1|||HEIGHT|HEIGHT|||STANDING, BENT FORWARD||MM|||BREATHS/MIN|NOT DONE||SKIN OF THE LIP|BILATERAL|U|Y|N|||Y|2||58||OBSERVATION|1966-01-06||||1968-08-11||1972-12-27
TRIAL STUDY 134XCP|VS|5255639E-AC65-4DA8-85EF-4ABD53BAAED5|2|||RESP|RESPIRATORY RATE|||STANDING||C|||C|NOT DONE||ANKLE MORTISE|LEFT|N|U|U|||Y|2||58||OPEN LABEL TREATMENT|1966-07-11||||1967-10-18||1969-01-07
TRIAL STUDY 134XCP|VS|5255639E-AC65-4DA8-85EF-4ABD53BAAED5|1|||RESP|RESPIRATORY RATE|||SITTING||PA|||MM|NOT DONE||AZYGOS VEIN|RIGHT|NA|U|U|||Y|3||39||BASELINE|1964-11-27||||1964-10-15||1960-07-06
TRIAL STUDY 134XCP|VS|5255639E-AC65-4DA8-85EF-4ABD53BAAED5|2|||FTEWT|FETAL ESTIMATED WEIGHT|||FOWLERS||MMHG|||BEATS/MIN|NOT DONE||CLAW|IPSILATERAL|N|Y|U|||N|3||39||RUN-IN|1966-04-05||||1969-11-04||1965-04-05
TRIAL STUDY 134XCP|VS|5255639E-AC65-4DA8-85EF-4ABD53BAAED5|1|||SYSBP|SYSTOLIC BLOOD PRESSURE|||STANDING||MET|||HZ|NOT DONE||PROFUNDA FEMORIS VEIN|CONTRALATERAL|N|U|Y|||U|4||88||INDUCTION TREATMENT|1966-07-31||||1967-03-16||1967-12-19
TRIAL STUDY 134XCP|VS|5255639E-AC65-4DA8-85EF-4ABD53BAAED5|2|||DBPAPCTL|DIASTOLIC BP-FOR-AGE PERCENTILE|||RIGHT LATERAL DECUBITUS||IN|||K|NOT DONE||LENS|UNILATERAL|U|U|NA|||NA|4||88||CONTINUATION TREATMENT|1969-02-11||||1967-06-13||1961-05-06
TRIAL STUDY 134XCP|VS|5255639E-AC65-4DA8-85EF-4ABD53BAAED5|1|||BODLNGTH|BODY LENGTH|||LEFT LATERAL DECUBITUS||G|||WATT|NOT DONE||SUPRAPUBIC REGION|UNILATERAL|U|Y|NA|||NA|5||7||BASELINE|1968-11-11||||1960-09-08||1971-11-06
TRIAL STUDY 134XCP|VS|5255639E-AC65-4DA8-85EF-4ABD53BAAED5|2|||BSA|BODY SURFACE AREA|||REVERSE TRENDELENBURG||CMHG|||HZ|NOT DONE||SKIN OF THE ELBOW|LEFT|N|Y|U|||NA|5||7||TREATMENT|1968-03-17||||1966-07-25||1972-12-10
TRIAL STUDY 134XCP|VS|99F8DAA7-F186-487C-9E5D-43E9DBFB48C6|1|||MAP|MEAN ARTERIAL PRESSURE|||LATERAL DECUBITUS||M|||MM|NOT DONE||C1 VERTEBRA|LEFT|NA|Y|NA|||N|1||38||RUN-IN|1972-05-05||||1966-09-11||1973-07-07
TRIAL STUDY 134XCP|VS|99F8DAA7-F186-487C-9E5D-43E9DBFB48C6|2|||FTHR|FETAL HEART RATE|||DECUBITUS||K|||%|NOT DONE||PANCREAS, HEAD|LATERAL|Y|Y|Y|||N|1||38||CONTINUATION TREATMENT|1962-06-02||||1961-12-19||1966-09-14
TRIAL STUDY 134XCP|VS|99F8DAA7-F186-487C-9E5D-43E9DBFB48C6|1|||DIABP|DIASTOLIC BLOOD PRESSURE|||STANDING||M|||RATIO|NOT DONE||BRACHIAL ARTERY|BILATERAL|U|NA|Y|||N|2||58||RUN-IN|1966-10-28||||1968-04-19||1971-10-08
TRIAL STUDY 134XCP|VS|99F8DAA7-F186-487C-9E5D-43E9DBFB48C6|2|||ULNARL|ULNAR LENGTH|||SITTING||PA|||C|NOT DONE||METATARSOPHALANGEAL JOINT 3|LATERAL|U|U|NA|||NA|2||58||CONTINUATION TREATMENT|1962-09-04||||1966-12-03||1961-10-02
TRIAL STUDY 134XCP|VS|99F8DAA7-F186-487C-9E5D-43E9DBFB48C6|1|||NECKCIR|NECK CIRCUMFERENCE|||STANDING, BENT FORWARD||IN|||BREATHS/MIN|NOT DONE||L3-L4 INTERVERTEBRAL SPACE|LEFT|N|N|Y|||NA|3||39||BLINDED TREATMENT|1960-02-21||||1966-11-20||1971-04-30
TRIAL STUDY 134XCP|VS|99F8DAA7-F186-487C-9E5D-43E9DBFB48C6|2|||OXYSAT|OXYGEN SATURATION|||DECUBITUS||M2|||MET|NOT DONE||CEREBELLUM|CONTRALATERAL|U|NA|NA|||U|3||39||CONTINUATION TREATMENT|1973-03-12||||1971-08-30||1965-01-18
TRIAL STUDY 134XCP|VS|99F8DAA7-F186-487C-9E5D-43E9DBFB48C6|1|||ENRGEXP|ENERGY EXPENDITURE|||SEMI-FOWLERS||IN|||BREATHS/MIN|NOT DONE||LIVER FISSURE|BILATERAL|NA|NA|U|||N|4||88||BLINDED TREATMENT|1960-08-02||||1970-08-10||1967-12-03
TRIAL STUDY 134XCP|VS|99F8DAA7-F186-487C-9E5D-43E9DBFB48C6|2|||FTHR|FETAL HEART RATE|||FOWLERS||PA|||MET|NOT DONE||LIVER LOBE|CONTRALATERAL|U|NA|Y|||N|4||88||LONG-TERM FOLLOW-UP|1966-07-07||||1962-10-14||1969-11-09
TRIAL STUDY 134XCP|VS|99F8DAA7-F186-487C-9E5D-43E9DBFB48C6|1|||FTWTGAPL|FETAL WEIGHT-FOR-GEST AGE PERCENTILE|||SLING||WATT|||MMHG|NOT DONE||HEPATOBILIARY SYSTEM|BILATERAL|Y|Y|Y|||U|5||7||FOLLOW-UP|1969-11-17||||1963-02-16||1964-05-24
TRIAL STUDY 134XCP|VS|99F8DAA7-F186-487C-9E5D-43E9DBFB48C6|2|||RESP|RESPIRATORY RATE|||PRONE||KCAL/DAY|||%|NOT DONE||METACARPAL BONE 3|UNILATERAL|N|N|N|||U|5||7||CONTINUATION TREATMENT|1962-01-27||||1961-03-15||1967-11-26
TRIAL STUDY 134XCP|VS|88A1099B-F69D-4B6F-90CE-DAAE629CEACE|1|||CRWNHEEL|CROWN-TO-HEEL LENGTH|||RIGHT LATERAL DECUBITUS||LB|||MM|NOT DONE||ESOPHAGEAL LYMPH NODE|BILATERAL|N|N|N|||NA|1||38||BLINDED TREATMENT|1963-04-16||||1971-08-10||1960-06-04
TRIAL STUDY 134XCP|VS|88A1099B-F69D-4B6F-90CE-DAAE629CEACE|2|||TBW|TOTAL BODY WATER|||SUPINE||KG|||WATT|NOT DONE||RIGHT VENTRICULAR BRANCH|CONTRALATERAL|NA|U|NA|||NA|1||38||RUN-IN|1961-01-03||||1966-01-17||1972-09-27
TRIAL STUDY 134XCP|VS|88A1099B-F69D-4B6F-90CE-DAAE629CEACE|1|||ULNARL|ULNAR LENGTH|||DECUBITUS||BREATHS/MIN|||MET|NOT DONE||SPINOUS PROCESS|UNILATERAL|NA|NA|U|||U|2||58||FOLLOW-UP|1966-06-16||||1971-04-24||1971-05-15
TRIAL STUDY 134XCP|VS|88A1099B-F69D-4B6F-90CE-DAAE629CEACE|2|||OXYSAT|OXYGEN SATURATION|||TRENDELENBURG||%|||K|NOT DONE||L2-L3 INTERVERTEBRAL SPACE|BILATERAL|N|NA|N|||NA|2||58||LONG-TERM FOLLOW-UP|1973-07-21||||1960-06-14||1962-12-10
TRIAL STUDY 134XCP|VS|88A1099B-F69D-4B6F-90CE-DAAE629CEACE|1|||FTMANDL|FETAL MANDIBULAR LENGTH|||SEMI-RECUMBENT||K|||KCAL/DAY|NOT DONE||LUNG, RIGHT, INFERIOR LOBE, LATERAL BASAL SEGMENT|CONTRALATERAL|Y|U|Y|||Y|3||39||OBSERVATION|1970-12-16||||1960-12-31||1968-12-26
TRIAL STUDY 134XCP|VS|88A1099B-F69D-4B6F-90CE-DAAE629CEACE|2|||FIO2|FRACTION OF INSPIRED OXYGEN|||LEFT LATERAL DECUBITUS||LB|||MET|NOT DONE||MAIN BRONCHUS, RIGHT|RIGHT|Y|NA|NA|||U|3||39||OPEN LABEL TREATMENT|1972-07-04||||1970-10-16||1964-07-20
TRIAL STUDY 134XCP|VS|88A1099B-F69D-4B6F-90CE-DAAE629CEACE|1|||ENRGEXP|ENERGY EXPENDITURE|||TRENDELENBURG||KG/M2|||MM|NOT DONE||FORELIMB|LATERAL|U|Y|N|||N|4||88||OPEN LABEL TREATMENT|1963-03-22||||1970-12-04||1966-08-25
TRIAL STUDY 134XCP|VS|88A1099B-F69D-4B6F-90CE-DAAE629CEACE|2|||FTSAD|FETAL SAGITTAL ABDOMINAL DIAMETER|||DECUBITUS||KCAL/DAY|||MM|NOT DONE||NECK|RIGHT|U|NA|N|||N|4||88||WASHOUT|1970-12-31||||1967-04-10||1965-01-17
TRIAL STUDY 134XCP|VS|88A1099B-F69D-4B6F-90CE-DAAE629CEACE|1|||FTSAD|FETAL SAGITTAL ABDOMINAL DIAMETER|||REVERSE TRENDELENBURG||%|||MMHG|NOT DONE||BRAIN STEM|CONTRALATERAL|N|Y|Y|||NA|5||7||WASHOUT|1965-08-27||||1969-02-20||1971-12-07
TRIAL STUDY 134XCP|VS|88A1099B-F69D-4B6F-90CE-DAAE629CEACE|2|||BMI|BODY MASS INDEX|||SITTING, LEGS DEPENDENT||HZ|||PA|NOT DONE||ARM|BILATERAL|Y|N|U|||N|5||7||TREATMENT|1965-01-26||||1960-06-27||1964-02-09
TRIAL STUDY 134XCP|VS|640DDEF5-748A-4F92-A13D-15D1C7CE0800|1|||SAD|SAGITTAL ABDOMINAL DIAMETER|||UNCONSTRAINED||G|||HZ|NOT DONE||LEFT VENTRICULAR MID ANTEROSEPTAL SEGMENT|BILATERAL|N|NA|N|||U|1||38||RUN-IN|1968-05-23||||1973-03-02||1968-05-31
TRIAL STUDY 134XCP|VS|640DDEF5-748A-4F92-A13D-15D1C7CE0800|2|||CPLRFLT|CAPILLARY REFILL TIME|||SITTING, LEGS DEPENDENT||MMHG|||CM|NOT DONE||URETHRA, PENILE|CONTRALATERAL|N|N|Y|||Y|1||38||BASELINE|1970-06-27||||1971-01-25||1971-02-27
TRIAL STUDY 134XCP|VS|640DDEF5-748A-4F92-A13D-15D1C7CE0800|1|||SSSKNF|SUBSCAPULAR SKINFOLD THICKNESS|||SUPINE||K|||F|NOT DONE||BODY OF STOMACH|UNILATERAL|NA|N|N|||U|2||58||BLINDED TREATMENT|1967-06-25||||1963-02-16||1963-03-16
TRIAL STUDY 134XCP|VS|640DDEF5-748A-4F92-A13D-15D1C7CE0800|2|||LBM|LEAN BODY MASS|||LEFT LATERAL DECUBITUS||PA|||%|NOT DONE||ADDUCTOR HALLUCIS MUSCLE, TRANSVERSE HEAD|LEFT|U|N|NA|||Y|2||58||OBSERVATION|1964-01-01||||1968-12-14||1966-11-25
TRIAL STUDY 134XCP|VS|640DDEF5-748A-4F92-A13D-15D1C7CE0800|1|||WAISTHIP|WAIST TO HIP RATIO|||SITTING, LEGS DEPENDENT||G|||BEATS/MIN|NOT DONE||MESENTERY|LATERAL|Y|NA|NA|||Y|3||39||SCREENING|1962-05-29||||1966-05-09||1961-06-16
TRIAL STUDY 134XCP|VS|640DDEF5-748A-4F92-A13D-15D1C7CE0800|2|||SYSBP|SYSTOLIC BLOOD PRESSURE|||SITTING||MMHG|||M|NOT DONE||T12 VERTEBRA|RIGHT|NA|Y|Y|||U|3||39||OPEN LABEL TREATMENT|1961-03-11||||1963-05-07||1964-11-20
TRIAL STUDY 134XCP|VS|640DDEF5-748A-4F92-A13D-15D1C7CE0800|1|||WTHTPCTL|WEIGHT-FOR-HEIGHT PERCENTILE|||SITTING||CMHG|||MM|NOT DONE||ESOPHAGEAL LYMPH NODE|CONTRALATERAL|U|Y|Y|||N|4||88||CONTINUATION TREATMENT|1964-09-12||||1969-08-11||1971-11-17
TRIAL STUDY 134XCP|VS|640DDEF5-748A-4F92-A13D-15D1C7CE0800|2|||HEIGHT|HEIGHT|||LEFT LATERAL DECUBITUS||KCAL/DAY|||M2|NOT DONE||CLAW|UNILATERAL|NA|NA|U|||NA|4||88||WASHOUT|1963-11-16||||1971-06-30||1969-04-10
TRIAL STUDY 134XCP|VS|640DDEF5-748A-4F92-A13D-15D1C7CE0800|1|||MANDL|MANDIBULAR LENGTH|||SITTING, LEGS DEPENDENT||M2|||IN|NOT DONE||DISTAL INTERPHALANGEAL JOINT 2|UNILATERAL|N|N|NA|||NA|5||7||FOLLOW-UP|1964-11-05||||1963-11-27||1970-01-27
TRIAL STUDY 134XCP|VS|640DDEF5-748A-4F92-A13D-15D1C7CE0800|2|||MUARMCIR|MID-UPPER ARM CIRCUMFERENCE|||SEMI-RECUMBENT||LB|||BREATHS/MIN|NOT DONE||LEFT VENTRICULAR BASAL ANTERIOR SEGMENT|BILATERAL|N|U|Y|||U|5||7||LONG-TERM FOLLOW-UP|1970-10-27||||1960-06-18||1973-07-09
TRIAL STUDY 134XCP|VS|FB4290D9-A5F8-472C-8AAC-28D8A59D8FED|1|||CHESTCIR|CHEST CIRCUMFERENCE|||PRONE||LB|||G|NOT DONE||CORPUS CALLOSUM, SPLENIUM|UNILATERAL|U|NA|N|||U|1||38||RUN-IN|1968-04-12||||1969-08-09||1969-11-12
TRIAL STUDY 134XCP|VS|FB4290D9-A5F8-472C-8AAC-28D8A59D8FED|2|||BODLNGTH|BODY LENGTH|||PRONE||M|||PA|NOT DONE||GASTROESOPHAGEAL JUNCTION|RIGHT|N|N|NA|||U|1||38||OPEN LABEL TREATMENT|1966-02-01||||1973-02-23||1972-11-16
TRIAL STUDY 134XCP|VS|FB4290D9-A5F8-472C-8AAC-28D8A59D8FED|1|||TRSKNF|TRICEPS SKINFOLD THICKNESS|||FOWLERS||HZ|||BREATHS/MIN|NOT DONE||SOFT TISSUE|IPSILATERAL|NA|U|U|||U|2||58||INDUCTION TREATMENT|1966-01-25||||1968-12-21||1968-10-12
TRIAL STUDY 134XCP|VS|FB4290D9-A5F8-472C-8AAC-28D8A59D8FED|2|||HR|HEART RATE|||SEMI-FOWLERS||M|||CMHG|NOT DONE||POPLITEAL LYMPH NODE|IPSILATERAL|NA|N|NA|||Y|2||58||INDUCTION TREATMENT|1966-05-02||||1964-06-30||1964-01-16
TRIAL STUDY 134XCP|VS|FB4290D9-A5F8-472C-8AAC-28D8A59D8FED|1|||KNEEHEEL|KNEE TO HEEL LENGTH|||PRONE||F|||KG/M2|NOT DONE||FINGER FLEXOR TENDONS|IPSILATERAL|N|NA|NA|||Y|3||39||INDUCTION TREATMENT|1967-12-24||||1973-08-21||1960-04-19
TRIAL STUDY 134XCP|VS|FB4290D9-A5F8-472C-8AAC-28D8A59D8FED|2|||SAO2FIO2|OXYGEN SATURATION/FRACTION INSPIRED O2|||DECUBITUS||IN|||MMHG|NOT DONE||PANCREAS, EXOCRINE|LEFT|NA|U|NA|||NA|3||39||OPEN LABEL TREATMENT|1964-10-31||||1963-10-22||1971-11-05
TRIAL STUDY 134XCP|VS|FB4290D9-A5F8-472C-8AAC-28D8A59D8FED|1|||FIO2|FRACTION OF INSPIRED OXYGEN|||REVERSE TRENDELENBURG||HZ|||M|NOT DONE||COLON, RIGHT|CONTRALATERAL|NA|U|NA|||N|4||88||TREATMENT|1972-06-06||||1965-09-01||1962-08-16
TRIAL STUDY 134XCP|VS|FB4290D9-A5F8-472C-8AAC-28D8A59D8FED|2|||HIPCIR|HIP CIRCUMFERENCE|||RIGHT LATERAL DECUBITUS||F|||KG|NOT DONE||JOINT|BILATERAL|U|NA|NA|||Y|4||88||WASHOUT|1968-03-18||||1968-02-24||1960-06-01
TRIAL STUDY 134XCP|VS|FB4290D9-A5F8-472C-8AAC-28D8A59D8FED|1|||DBPAPCTL|DIASTOLIC BP-FOR-AGE PERCENTILE|||FOWLERS||C|||BEATS/MIN|NOT DONE||LEFT VENTRICULAR BASAL ANTERIOR SEGMENT|CONTRALATERAL|Y|NA|N|||Y|5||7||LONG-TERM FOLLOW-UP|1963-01-23||||1966-09-15||1965-02-06
TRIAL STUDY 134XCP|VS|FB4290D9-A5F8-472C-8AAC-28D8A59D8FED|2|||DIABP|DIASTOLIC BLOOD PRESSURE|||STANDING||M|||KG/M2|NOT DONE||CAUDAL VERTEBRA|LATERAL|Y|NA|U|||Y|5||7||OPEN LABEL TREATMENT|1961-01-29||||1971-04-19||1967-02-20
TRIAL STUDY 134XCP|VS|EBC7BF7B-18C6-463C-8500-027B2A6966DB|1|||FRMSIZE|BODY FRAME SIZE|||FOWLERS||CMHG|||KG/M2|NOT DONE||PUBIC BONE|BILATERAL|U|Y|Y|||NA|1||38||BLINDED TREATMENT|1970-03-22||||1964-04-23||1973-03-29
TRIAL STUDY 134XCP|VS|EBC7BF7B-18C6-463C-8500-027B2A6966DB|2|||SYSBP|SYSTOLIC BLOOD PRESSURE|||DECUBITUS||IN|||M2|NOT DONE||ESOPHAGEAL LYMPH NODE|CONTRALATERAL|N|Y|U|||Y|1||38||RUN-IN|1971-04-26||||1960-07-24||1962-09-15
TRIAL STUDY 134XCP|VS|EBC7BF7B-18C6-463C-8500-027B2A6966DB|1|||FIO2|FRACTION OF INSPIRED OXYGEN|||STANDING, BENT FORWARD||G|||HZ|NOT DONE||TRUNK|UNILATERAL|Y|Y|Y|||NA|2||58||WASHOUT|1969-07-30||||1964-03-11||1970-09-22
TRIAL STUDY 134XCP|VS|EBC7BF7B-18C6-463C-8500-027B2A6966DB|2|||FTEWT|FETAL ESTIMATED WEIGHT|||UNCONSTRAINED||KG|||CMHG|NOT DONE||NAVICULAR BONE|LEFT|NA|N|Y|||U|2||58||INDUCTION TREATMENT|1970-09-16||||1971-10-07||1970-03-12
TRIAL STUDY 134XCP|VS|EBC7BF7B-18C6-463C-8500-027B2A6966DB|1|||WTHTPCTL|WEIGHT-FOR-HEIGHT PERCENTILE|||SLING||M|||%|NOT DONE||LUNG, RIGHT, SUPERIOR LOBE, POSTERIOR SEGMENT|RIGHT|NA|NA|Y|||Y|3||39||TREATMENT|1964-02-21||||1969-06-20||1963-05-22
TRIAL STUDY 134XCP|VS|EBC7BF7B-18C6-463C-8500-027B2A6966DB|2|||BODYFATM|BODY FAT MEASUREMENT|||SLING||MMHG|||IN|NOT DONE||HAND DIGIT 3|LEFT|U|NA|NA|||Y|3||39||RUN-IN|1960-08-10||||1960-11-19||1972-04-04
TRIAL STUDY 134XCP|VS|EBC7BF7B-18C6-463C-8500-027B2A6966DB|1|||MANDL|MANDIBULAR LENGTH|||RIGHT LATERAL DECUBITUS||K|||CMHG|NOT DONE||NAIL BED|UNILATERAL|U|N|U|||Y|4||88||LONG-TERM FOLLOW-UP|1969-01-11||||1961-03-17||1967-08-06
TRIAL STUDY 134XCP|VS|EBC7BF7B-18C6-463C-8500-027B2A6966DB|2|||MUARMCIR|MID-UPPER ARM CIRCUMFERENCE|||SITTING||MET|||WATT|NOT DONE||BRAIN, THIRD VENTRICLE|LEFT|Y|U|NA|||NA|4||88||BLINDED TREATMENT|1971-01-07||||1972-06-09||1971-11-26
TRIAL STUDY 134XCP|VS|EBC7BF7B-18C6-463C-8500-027B2A6966DB|1|||ENRGEXP|ENERGY EXPENDITURE|||SUPINE||BREATHS/MIN|||BEATS/MIN|NOT DONE||GINGIVA|RIGHT|Y|Y|NA|||Y|5||7||TREATMENT|1962-03-13||||1971-10-31||1962-10-23
TRIAL STUDY 134XCP|VS|EBC7BF7B-18C6-463C-8500-027B2A6966DB|2|||HTAPCTL|HEIGHT-FOR-AGE PERCENTILE|||PRONE||C|||K|NOT DONE||FIBULA|LATERAL|Y|NA|U|||N|5||7||BLINDED TREATMENT|1961-04-16||||1965-02-26||1969-09-06
TRIAL STUDY 134XCP|VS|3167BE9B-E72D-4011-BD2C-CB4F9F27FE2C|1|||SYSBP|SYSTOLIC BLOOD PRESSURE|||PRONE||RATIO|||KG|NOT DONE||FASCIA|IPSILATERAL|NA|Y|N|||Y|1||38||RUN-IN|1973-09-02||||1962-04-20||1973-02-22
TRIAL STUDY 134XCP|VS|3167BE9B-E72D-4011-BD2C-CB4F9F27FE2C|2|||MUARMCIR|MID-UPPER ARM CIRCUMFERENCE|||STANDING||M2|||BREATHS/MIN|NOT DONE||LEFT MAIN CORONARY ARTERY BODY|UNILATERAL|N|U|N|||U|1||38||INDUCTION TREATMENT|1964-12-05||||1967-12-22||1961-09-17
TRIAL STUDY 134XCP|VS|3167BE9B-E72D-4011-BD2C-CB4F9F27FE2C|1|||CHESTCIR|CHEST CIRCUMFERENCE|||SITTING, LEGS DEPENDENT||LB|||K|NOT DONE||PELVIS|BILATERAL|NA|U|NA|||U|2||58||INDUCTION TREATMENT|1961-03-02||||1969-05-15||1965-11-12
TRIAL STUDY 134XCP|VS|3167BE9B-E72D-4011-BD2C-CB4F9F27FE2C|2|||OXYSAT|OXYGEN SATURATION|||SEMI-RECUMBENT||IN|||CMHG|NOT DONE||PYRAMIDAL TRACTS, BRAINSTEM|LEFT|NA|U|Y|||NA|2||58||OPEN LABEL TREATMENT|1960-01-18||||1960-06-13||1962-08-05
TRIAL STUDY 134XCP|VS|3167BE9B-E72D-4011-BD2C-CB4F9F27FE2C|1|||PULSEPR|PULSE PRESSURE|||SEMI-RECUMBENT||KG|||MM|NOT DONE||OCULOMOTOR NERVE|RIGHT|N|Y|Y|||U|3||39||FOLLOW-UP|1960-08-15||||1969-01-07||1971-06-05
TRIAL STUDY 134XCP|VS|3167BE9B-E72D-4011-BD2C-CB4F9F27FE2C|2|||CHESTCIR|CHEST CIRCUMFERENCE|||UNCONSTRAINED||M2|||MMHG|NOT DONE||PARATRACHEAL LYMPH NODE|IPSILATERAL|NA|NA|NA|||N|3||39||BLINDED TREATMENT|1969-08-09||||1961-10-13||1969-04-02
TRIAL STUDY 134XCP|VS|3167BE9B-E72D-4011-BD2C-CB4F9F27FE2C|1|||FARMCIR|FOREARM CIRCUMFERENCE|||STANDING||PA|||KCAL/DAY|NOT DONE||ORBIT|CONTRALATERAL|N|NA|N|||N|4||88||OBSERVATION|1963-10-17||||1965-08-15||1972-08-28
TRIAL STUDY 134XCP|VS|3167BE9B-E72D-4011-BD2C-CB4F9F27FE2C|2|||RESP|RESPIRATORY RATE|||STANDING||CM|||HZ|NOT DONE||WAIST|UNILATERAL|Y|Y|Y|||U|4||88||LONG-TERM FOLLOW-UP|1960-05-01||||1968-02-16||1962-12-22
TRIAL STUDY 134XCP|VS|3167BE9B-E72D-4011-BD2C-CB4F9F27FE2C|1|||FRMSIZE|BODY FRAME SIZE|||SUPINE||C|||LB|NOT DONE||STERNOCLAVICULAR JOINT|UNILATERAL|NA|U|Y|||N|5||7||TREATMENT|1971-06-16||||1972-12-04||1962-06-06
TRIAL STUDY 134XCP|VS|3167BE9B-E72D-4011-BD2C-CB4F9F27FE2C|2|||EWEIGHT|ESTIMATED WEIGHT|||REVERSE TRENDELENBURG||RATIO|||HZ|NOT DONE||SUBMANDIBULAR GLAND|LEFT|NA|N|N|||U|5||7||WASHOUT|1969-07-26||||1966-05-05||1963-07-25
TRIAL STUDY 134XCP|VS|61A831EB-7AFF-47B7-A0D5-9727CC6EB9CD|1|||TEMP|TEMPERATURE|||SEMI-RECUMBENT||KG|||CM|NOT DONE||GASTROINTESTINAL TRACT, UPPER, WALL|CONTRALATERAL|NA|N|N|||N|1||38||INDUCTION TREATMENT|1962-07-19||||1973-08-16||1973-06-03
TRIAL STUDY 134XCP|VS|61A831EB-7AFF-47B7-A0D5-9727CC6EB9CD|2|||TEMPPB|PERIPHERAL BODY TEMPERATURE|||SEMI-FOWLERS||MMHG|||PA|NOT DONE||AORTIC ARCH|CONTRALATERAL|U|Y|N|||U|1||38||TREATMENT|1967-07-03||||1962-06-18||1971-04-28
TRIAL STUDY 134XCP|VS|61A831EB-7AFF-47B7-A0D5-9727CC6EB9CD|1|||HTAPCTL|HEIGHT-FOR-AGE PERCENTILE|||PRONE||HZ|||IN|NOT DONE||PERICARDIUM|CONTRALATERAL|N|Y|U|||Y|2||58||LONG-TERM FOLLOW-UP|1961-04-02||||1969-09-30||1962-05-11
TRIAL STUDY 134XCP|VS|61A831EB-7AFF-47B7-A0D5-9727CC6EB9CD|2|||FTEWT|FETAL ESTIMATED WEIGHT|||UNCONSTRAINED||C|||G|NOT DONE||INTRAHEPATIC LARGE BILE DUCT|BILATERAL|N|N|NA|||N|2||58||LONG-TERM FOLLOW-UP|1963-03-05||||1963-11-17||1963-09-17
TRIAL STUDY 134XCP|VS|61A831EB-7AFF-47B7-A0D5-9727CC6EB9CD|1|||CPLRFLT|CAPILLARY REFILL TIME|||DECUBITUS||CMHG|||HZ|NOT DONE||SEMITENDINOSUS MUSCLE|LATERAL|U|NA|NA|||Y|3||39||RUN-IN|1965-07-25||||1966-06-28||1967-05-30
TRIAL STUDY 134XCP|VS|61A831EB-7AFF-47B7-A0D5-9727CC6EB9CD|2|||SBPAPCTL|SYSTOLIC BP-FOR-AGE PERCENTILE|||SITTING, LEGS DEPENDENT||C|||C|NOT DONE||DISTAL PHALANX 5 OF THE HAND|LATERAL|Y|N|NA|||N|3||39||WASHOUT|1966-09-24||||1960-02-19||1973-08-17
TRIAL STUDY 134XCP|VS|61A831EB-7AFF-47B7-A0D5-9727CC6EB9CD|1|||FTMANDL|FETAL MANDIBULAR LENGTH|||SUPINE||M2|||M2|NOT DONE||HEART, RIGHT VENTRICULAR OUTFLOW TRACT|LATERAL|Y|N|N|||N|4||88||CONTINUATION TREATMENT|1965-05-02||||1972-01-30||1970-05-04
TRIAL STUDY 134XCP|VS|61A831EB-7AFF-47B7-A0D5-9727CC6EB9CD|2|||ENRGEXP|ENERGY EXPENDITURE|||DECUBITUS||IN|||HZ|NOT DONE||THORACIC LYMPH NODE|IPSILATERAL|NA|NA|U|||NA|4||88||TREATMENT|1973-08-19||||1964-05-05||1962-02-05
TRIAL STUDY 134XCP|VS|61A831EB-7AFF-47B7-A0D5-9727CC6EB9CD|1|||HEIGHT|HEIGHT|||SUPINE||M2|||C|NOT DONE||ANKLE MORTISE|BILATERAL|Y|U|Y|||U|5||7||TREATMENT|1972-02-28||||1965-06-01||1968-01-08
TRIAL STUDY 134XCP|VS|61A831EB-7AFF-47B7-A0D5-9727CC6EB9CD|2|||PULSEPR|PULSE PRESSURE|||REVERSE TRENDELENBURG||LB|||HZ|NOT DONE||TRIANGULAR-HAMATE JOINT|LEFT|Y|NA|Y|||N|5||7||OPEN LABEL TREATMENT|1967-04-28||||1960-11-25||1967-12-06
TRIAL STUDY 134XCP|VS|74741526-F925-4AA5-9BE3-F3B3884BEE68|1|||FTSAD|FETAL SAGITTAL ABDOMINAL DIAMETER|||PRONE||C|||PA|NOT DONE||LEFT VENTRICULAR BASAL ANTEROSEPTAL SEGMENT|IPSILATERAL|NA|N|U|||N|1||38||RUN-IN|1961-07-31||||1961-11-12||1968-08-22
TRIAL STUDY 134XCP|VS|74741526-F925-4AA5-9BE3-F3B3884BEE68|2|||FTHR|FETAL HEART RATE|||SEMI-RECUMBENT||KG/M2|||RATIO|NOT DONE||ABDOMINAL REGION|CONTRALATERAL|U|Y|U|||U|1||38||CONTINUATION TREATMENT|1968-04-04||||1966-07-12||1972-09-17
TRIAL STUDY 134XCP|VS|74741526-F925-4AA5-9BE3-F3B3884BEE68|1|||TEMPPB|PERIPHERAL BODY TEMPERATURE|||PRONE||LB|||CM|NOT DONE||PROXIMAL PHALANX 4 OF THE HAND|IPSILATERAL|U|U|N|||N|2||58||CONTINUATION TREATMENT|1961-10-22||||1967-08-31||1971-03-15
TRIAL STUDY 134XCP|VS|74741526-F925-4AA5-9BE3-F3B3884BEE68|2|||TRSKNF|TRICEPS SKINFOLD THICKNESS|||SITTING, LEGS DEPENDENT||PA|||BEATS/MIN|NOT DONE||SALIVARY GLAND, SUBLINGUAL|BILATERAL|Y|Y|Y|||U|2||58||OPEN LABEL TREATMENT|1969-06-06||||1972-08-12||1971-04-11
TRIAL STUDY 134XCP|VS|74741526-F925-4AA5-9BE3-F3B3884BEE68|1|||FTHR|FETAL HEART RATE|||LATERAL DECUBITUS||HZ|||IN|NOT DONE||PUTAMEN|UNILATERAL|NA|NA|U|||NA|3||39||CONTINUATION TREATMENT|1961-12-18||||1973-04-19||1972-03-22
TRIAL STUDY 134XCP|VS|74741526-F925-4AA5-9BE3-F3B3884BEE68|2|||WTHTPCTL|WEIGHT-FOR-HEIGHT PERCENTILE|||SITTING||KCAL/DAY|||BEATS/MIN|NOT DONE||HEART, LEFT ATRIUM|UNILATERAL|Y|NA|N|||N|3||39||SCREENING|1970-07-13||||1966-05-02||1963-03-22
TRIAL STUDY 134XCP|VS|74741526-F925-4AA5-9BE3-F3B3884BEE68|1|||SBPAPCTL|SYSTOLIC BP-FOR-AGE PERCENTILE|||LEFT LATERAL DECUBITUS||MET|||BREATHS/MIN|NOT DONE||BLADDER, FUNDUS|LEFT|U|N|N|||U|4||88||RUN-IN|1966-11-01||||1963-05-06||1970-03-06
TRIAL STUDY 134XCP|VS|74741526-F925-4AA5-9BE3-F3B3884BEE68|2|||CRWNHEEL|CROWN-TO-HEEL LENGTH|||LATERAL DECUBITUS||MM|||CM|NOT DONE||CIRCUMFLEX ARTERY AV GROOVE CONTINUATION ARTERY|CONTRALATERAL|U|N|Y|||Y|4||88||WASHOUT|1965-05-22||||1969-12-28||1973-06-05
TRIAL STUDY 134XCP|VS|74741526-F925-4AA5-9BE3-F3B3884BEE68|1|||HDCIRC|HEAD CIRCUMFERENCE|||STANDING, BENT FORWARD||HZ|||RATIO|NOT DONE||PARAMETRIUM|UNILATERAL|U|NA|NA|||U|5||7||TREATMENT|1968-03-17||||1967-03-15||1972-09-03
TRIAL STUDY 134XCP|VS|74741526-F925-4AA5-9BE3-F3B3884BEE68|2|||TEMP|TEMPERATURE|||FOWLERS||F|||MM|NOT DONE||ESOPHAGUS, MIDDLE THIRD|LATERAL|NA|N|Y|||Y|5||7||FOLLOW-UP|1971-09-30||||1967-04-15||1960-09-08
TRIAL STUDY 134XCP|VS|25088C28-0FA3-4005-90C3-CCF9C6FF5851|1|||RESP|RESPIRATORY RATE|||SEMI-FOWLERS||RATIO|||WATT|NOT DONE||PROXIMAL PHALANX 1 OF THE HAND|IPSILATERAL|Y|Y|U|||Y|1||38||INDUCTION TREATMENT|1972-11-22||||1966-09-10||1969-12-16
TRIAL STUDY 134XCP|VS|25088C28-0FA3-4005-90C3-CCF9C6FF5851|2|||SYSBP|SYSTOLIC BLOOD PRESSURE|||REVERSE TRENDELENBURG||KG|||BREATHS/MIN|NOT DONE||T3 VERTEBRA|IPSILATERAL|N|NA|Y|||U|1||38||OPEN LABEL TREATMENT|1971-10-17||||1966-04-02||1967-12-29
TRIAL STUDY 134XCP|VS|25088C28-0FA3-4005-90C3-CCF9C6FF5851|1|||SBPHPCTL|SYSTOLIC BP-FOR-HEIGHT PERCENTILE|||SLING||KCAL/DAY|||PA|NOT DONE||PERINEUM|LEFT|Y|NA|Y|||U|2||58||SCREENING|1972-06-29||||1962-09-15||1973-07-19
TRIAL STUDY 134XCP|VS|25088C28-0FA3-4005-90C3-CCF9C6FF5851|2|||WEIGHT|WEIGHT|||PRONE||LB|||BEATS/MIN|NOT DONE||HIP ADDUCTORS|LATERAL|NA|NA|N|||Y|2||58||BASELINE|1969-05-06||||1962-09-20||1968-10-21
TRIAL STUDY 134XCP|VS|25088C28-0FA3-4005-90C3-CCF9C6FF5851|1|||TBW|TOTAL BODY WATER|||DECUBITUS||KG|||HZ|NOT DONE||THORACIC LYMPH NODE|LEFT|N|NA|NA|||NA|3||39||BLINDED TREATMENT|1961-08-21||||1963-05-01||1969-02-17
TRIAL STUDY 134XCP|VS|25088C28-0FA3-4005-90C3-CCF9C6FF5851|2|||DBPHPCTL|DIASTOLIC BP-FOR-HEIGHT PERCENTILE|||SITTING||BREATHS/MIN|||IN|NOT DONE||C3 VERTEBRA|BILATERAL|NA|Y|N|||U|3||39||TREATMENT|1966-05-07||||1967-04-02||1960-01-09
TRIAL STUDY 134XCP|VS|25088C28-0FA3-4005-90C3-CCF9C6FF5851|1|||WTAPCTL|WEIGHT-FOR-AGE PERCENTILE|||LEFT LATERAL DECUBITUS||M2|||%|NOT DONE||LUNG, RIGHT, INFERIOR LOBE, LATERAL BASAL SEGMENT|UNILATERAL|NA|N|U|||NA|4||88||BASELINE|1970-10-01||||1965-01-04||1966-09-09
TRIAL STUDY 134XCP|VS|25088C28-0FA3-4005-90C3-CCF9C6FF5851|2|||FTHDCIRC|FETAL HEAD CIRCUMFERENCE|||LATERAL DECUBITUS||IN|||%|NOT DONE||ANTERIOR INFERIOR CEREBELLAR ARTERY|UNILATERAL|N|Y|N|||NA|4||88||BLINDED TREATMENT|1966-12-12||||1961-11-17||1960-08-08
TRIAL STUDY 134XCP|VS|25088C28-0FA3-4005-90C3-CCF9C6FF5851|1|||SBPAPCTL|SYSTOLIC BP-FOR-AGE PERCENTILE|||RIGHT LATERAL DECUBITUS||BREATHS/MIN|||LB|NOT DONE||DISTAL FEMUR R1|LATERAL|N|N|NA|||N|5||7||LONG-TERM FOLLOW-UP|1961-05-22||||1961-08-10||1969-01-25
TRIAL STUDY 134XCP|VS|25088C28-0FA3-4005-90C3-CCF9C6FF5851|2|||BMR|BASAL METABOLIC RATE|||SLING||K|||CMHG|NOT DONE||MAXILLARY SINUS|IPSILATERAL|Y|NA|NA|||Y|5||7||LONG-TERM FOLLOW-UP|1963-12-18||||1961-12-27||1960-02-08
TRIAL STUDY 134XCP|VS|9BF13738-0A50-46E6-A3DA-AC956A361B97|1|||ULNARL|ULNAR LENGTH|||REVERSE TRENDELENBURG||MM|||KCAL/DAY|NOT DONE||UPPER CERVICAL LYMPH NODE|UNILATERAL|Y|N|U|||N|1||38||OBSERVATION|1964-05-26||||1963-06-07||1972-09-29
TRIAL STUDY 134XCP|VS|9BF13738-0A50-46E6-A3DA-AC956A361B97|2|||EWEIGHT|ESTIMATED WEIGHT|||REVERSE TRENDELENBURG||WATT|||%|NOT DONE||ATRIOVENTRICULAR VALVE|UNILATERAL|NA|Y|NA|||U|1||38||OPEN LABEL TREATMENT|1960-03-06||||1961-11-01||1962-11-04
TRIAL STUDY 134XCP|VS|9BF13738-0A50-46E6-A3DA-AC956A361B97|1|||OXYSAT|OXYGEN SATURATION|||LATERAL DECUBITUS||KG/M2|||KG/M2|NOT DONE||MEDULLA OBLONGATA|UNILATERAL|U|U|N|||NA|2||58||RUN-IN|1970-12-13||||1969-12-15||1969-01-24
TRIAL STUDY 134XCP|VS|9BF13738-0A50-46E6-A3DA-AC956A361B97|2|||SBPAPCTL|SYSTOLIC BP-FOR-AGE PERCENTILE|||STANDING, BENT FORWARD||IN|||M2|NOT DONE||KIDNEY, LOWER LOBE|IPSILATERAL|N|U|U|||Y|2||58||FOLLOW-UP|1971-06-30||||1970-01-19||1963-01-13
TRIAL STUDY 134XCP|VS|9BF13738-0A50-46E6-A3DA-AC956A361B97|1|||FARMCIR|FOREARM CIRCUMFERENCE|||STANDING, BENT FORWARD||K|||KG/M2|NOT DONE||HUMERUS|RIGHT|N|Y|N|||U|3||39||OPEN LABEL TREATMENT|1963-12-31||||1970-06-27||1961-03-01
TRIAL STUDY 134XCP|VS|9BF13738-0A50-46E6-A3DA-AC956A361B97|2|||FARMCIR|FOREARM CIRCUMFERENCE|||SLING||BREATHS/MIN|||BREATHS/MIN|NOT DONE||BASILIC VEIN|LEFT|Y|N|U|||Y|3||39||BASELINE|1961-06-28||||1965-04-11||1972-03-01
TRIAL STUDY 134XCP|VS|9BF13738-0A50-46E6-A3DA-AC956A361B97|1|||INTP|INTERPRETATION|||STANDING, BENT FORWARD||KCAL/DAY|||MET|NOT DONE||THYROID GLAND, LEFT LOBE|LEFT|N|Y|U|||NA|4||88||WASHOUT|1962-08-07||||1962-02-16||1961-05-11
TRIAL STUDY 134XCP|VS|9BF13738-0A50-46E6-A3DA-AC956A361B97|2|||LBM|LEAN BODY MASS|||FOWLERS||RATIO|||RATIO|NOT DONE||LUNG, LEFT|CONTRALATERAL|NA|Y|NA|||U|4||88||BASELINE|1971-08-25||||1967-10-11||1967-08-29
TRIAL STUDY 134XCP|VS|9BF13738-0A50-46E6-A3DA-AC956A361B97|1|||MANDL|MANDIBULAR LENGTH|||REVERSE TRENDELENBURG||KG/M2|||KG|NOT DONE||SKULL, BASE|UNILATERAL|NA|N|N|||U|5||7||INDUCTION TREATMENT|1966-01-13||||1962-04-14||1961-07-01
TRIAL STUDY 134XCP|VS|9BF13738-0A50-46E6-A3DA-AC956A361B97|2|||HIPCIR|HIP CIRCUMFERENCE|||STANDING, BENT FORWARD||C|||BREATHS/MIN|NOT DONE||SKIN OF THE HEAD|CONTRALATERAL|U|N|N|||NA|5||7||FOLLOW-UP|1973-07-17||||1961-02-13||1961-08-28
TRIAL STUDY 134XCP|VS|C7432A9E-BB47-46D1-92F6-FED7FBC627A0|1|||SAD|SAGITTAL ABDOMINAL DIAMETER|||SEMI-FOWLERS||KCAL/DAY|||MET|NOT DONE||MAXILLARY SINUS|UNILATERAL|N|U|U|||N|1||38||OPEN LABEL TREATMENT|1964-03-13||||1960-04-20||1971-04-26
TRIAL STUDY 134XCP|VS|C7432A9E-BB47-46D1-92F6-FED7FBC627A0|2|||BSA|BODY SURFACE AREA|||REVERSE TRENDELENBURG||G|||BREATHS/MIN|NOT DONE||AZYGOS VEIN|UNILATERAL|NA|N|Y|||U|1||38||BLINDED TREATMENT|1971-11-11||||1972-12-12||1963-12-27
TRIAL STUDY 134XCP|VS|C7432A9E-BB47-46D1-92F6-FED7FBC627A0|1|||FTEWT|FETAL ESTIMATED WEIGHT|||DECUBITUS||KG/M2|||MMHG|NOT DONE||DISTAL INTERPHALANGEAL JOINT 4 OF THE FOOT|IPSILATERAL|N|U|NA|||NA|2||58||BLINDED TREATMENT|1966-09-30||||1966-07-16||1965-04-02
TRIAL STUDY 134XCP|VS|C7432A9E-BB47-46D1-92F6-FED7FBC627A0|2|||HTAPCTL|HEIGHT-FOR-AGE PERCENTILE|||SUPINE||M2|||KCAL/DAY|NOT DONE||OCULOMOTOR NERVE|UNILATERAL|N|U|Y|||U|2||58||RUN-IN|1963-06-09||||1961-05-18||1967-12-06
TRIAL STUDY 134XCP|VS|C7432A9E-BB47-46D1-92F6-FED7FBC627A0|1|||IDEALWT|IDEAL BODY WEIGHT|||TRENDELENBURG||HZ|||C|NOT DONE||T9 VERTEBRA|LEFT|N|Y|N|||NA|3||39||RUN-IN|1962-12-02||||1972-10-06||1965-01-25
TRIAL STUDY 134XCP|VS|C7432A9E-BB47-46D1-92F6-FED7FBC627A0|2|||KNEEHEEL|KNEE TO HEEL LENGTH|||SITTING, LEGS DEPENDENT||KG|||M2|NOT DONE||LUNG, LEFT, INFERIOR LOBE, POSTERIOR BASAL SEGMENT|UNILATERAL|N|NA|U|||NA|3||39||LONG-TERM FOLLOW-UP|1965-09-04||||1966-09-25||1970-10-29
TRIAL STUDY 134XCP|VS|C7432A9E-BB47-46D1-92F6-FED7FBC627A0|1|||FTWTGAPL|FETAL WEIGHT-FOR-GEST AGE PERCENTILE|||SEMI-RECUMBENT||MMHG|||G|NOT DONE||OSTIOMEATAL COMPLEX|BILATERAL|U|Y|N|||U|4||88||SCREENING|1965-03-24||||1964-10-22||1962-11-24
TRIAL STUDY 134XCP|VS|C7432A9E-BB47-46D1-92F6-FED7FBC627A0|2|||HDCIRC|HEAD CIRCUMFERENCE|||STANDING, BENT FORWARD||PA|||IN|NOT DONE||OPTIC NERVE|RIGHT|N|Y|N|||U|4||88||FOLLOW-UP|1969-10-29||||1961-06-25||1964-03-31
TRIAL STUDY 134XCP|VS|C7432A9E-BB47-46D1-92F6-FED7FBC627A0|1|||SAO2FIO2|OXYGEN SATURATION/FRACTION INSPIRED O2|||STANDING||M2|||BEATS/MIN|NOT DONE||CELIAC ARTERY|CONTRALATERAL|N|NA|Y|||Y|5||7||WASHOUT|1970-11-30||||1970-02-11||1970-08-11
TRIAL STUDY 134XCP|VS|C7432A9E-BB47-46D1-92F6-FED7FBC627A0|2|||MAP|MEAN ARTERIAL PRESSURE|||SEMI-RECUMBENT||IN|||LB|NOT DONE||PROXIMAL PHALANX 4 OF THE HAND|LATERAL|Y|Y|Y|||Y|5||7||INDUCTION TREATMENT|1972-03-17||||1965-05-19||1970-05-26
TRIAL STUDY 134XCP|VS|F6EBFB06-3EEF-4621-BDA3-36FD6D4799BF|1|||OXYSAT|OXYGEN SATURATION|||FOWLERS||PA|||IN|NOT DONE||LUNG LOBE|BILATERAL|U|Y|N|||N|1||38||RUN-IN|1964-11-04||||1972-07-28||1966-08-18
TRIAL STUDY 134XCP|VS|F6EBFB06-3EEF-4621-BDA3-36FD6D4799BF|2|||RESP|RESPIRATORY RATE|||SLING||G|||MET|NOT DONE||WALDEYER'S TONSILLAR RING|UNILATERAL|NA|N|NA|||N|1||38||OBSERVATION|1962-02-19||||1965-01-23||1966-08-01
TRIAL STUDY 134XCP|VS|F6EBFB06-3EEF-4621-BDA3-36FD6D4799BF|1|||BMR|BASAL METABOLIC RATE|||STANDING, BENT FORWARD||LB|||RATIO|NOT DONE||INTERPHALANGEAL JOINT 4|LEFT|U|U|Y|||N|2||58||BASELINE|1971-07-08||||1961-08-29||1963-07-20
TRIAL STUDY 134XCP|VS|F6EBFB06-3EEF-4621-BDA3-36FD6D4799BF|2|||SYSBP|SYSTOLIC BLOOD PRESSURE|||SLING||CM|||KCAL/DAY|NOT DONE||PROXIMAL PHALANX 4 OF THE HAND|RIGHT|Y|NA|NA|||Y|2||58||CONTINUATION TREATMENT|1969-05-09||||1962-10-25||1970-10-26
TRIAL STUDY 134XCP|VS|F6EBFB06-3EEF-4621-BDA3-36FD6D4799BF|1|||KNEEHEEL|KNEE TO HEEL LENGTH|||LATERAL DECUBITUS||MET|||M2|NOT DONE||CERVICAL SPINE|LEFT|U|U|U|||U|3||39||INDUCTION TREATMENT|1966-12-05||||1961-07-03||1963-11-20
TRIAL STUDY 134XCP|VS|F6EBFB06-3EEF-4621-BDA3-36FD6D4799BF|2|||TEMP|TEMPERATURE|||PRONE||CM|||C|NOT DONE||CRANIAL CAVITY|RIGHT|Y|Y|U|||N|3||39||RUN-IN|1968-07-30||||1964-10-24||1967-04-22
TRIAL STUDY 134XCP|VS|F6EBFB06-3EEF-4621-BDA3-36FD6D4799BF|1|||CPLRFLT|CAPILLARY REFILL TIME|||TRENDELENBURG||G|||LB|NOT DONE||GASTROCNEMIUS MUSCLE|LATERAL|NA|NA|Y|||Y|4||88||CONTINUATION TREATMENT|1971-10-04||||1967-04-05||1972-03-07
TRIAL STUDY 134XCP|VS|F6EBFB06-3EEF-4621-BDA3-36FD6D4799BF|2|||ABSKNF|ABDOMINAL SKINFOLD THICKNESS|||UNCONSTRAINED||MMHG|||PA|NOT DONE||SOLE|BILATERAL|U|U|NA|||Y|4||88||FOLLOW-UP|1970-06-02||||1962-07-24||1973-08-18
TRIAL STUDY 134XCP|VS|F6EBFB06-3EEF-4621-BDA3-36FD6D4799BF|1|||RESP|RESPIRATORY RATE|||STANDING, BENT FORWARD||MM|||C|NOT DONE||NASAL SEPTUM|BILATERAL|N|N|U|||Y|5||7||OPEN LABEL TREATMENT|1969-06-23||||1967-01-21||1961-07-04
TRIAL STUDY 134XCP|VS|F6EBFB06-3EEF-4621-BDA3-36FD6D4799BF|2|||PULSE|PULSE RATE|||DECUBITUS||BEATS/MIN|||IN|NOT DONE||LESSER TROCHANTER|CONTRALATERAL|Y|Y|Y|||Y|5||7||RUN-IN|1960-02-03||||1968-06-01||1972-10-04
TRIAL STUDY 134XCP|VS|5AEA7EE9-1095-4967-B833-7665B6A71B31|1|||SAO2FIO2|OXYGEN SATURATION/FRACTION INSPIRED O2|||TRENDELENBURG||BREATHS/MIN|||G|NOT DONE||KIDNEY, MEDULLA|UNILATERAL|N|U|NA|||U|1||38||BASELINE|1972-11-24||||1967-07-09||1972-09-02
TRIAL STUDY 134XCP|VS|5AEA7EE9-1095-4967-B833-7665B6A71B31|2|||SAO2FIO2|OXYGEN SATURATION/FRACTION INSPIRED O2|||SUPINE||KCAL/DAY|||K|NOT DONE||LUNG, RIGHT, MIDDLE LOBE, MEDIAL SEGMENT|IPSILATERAL|N|U|N|||NA|1||38||INDUCTION TREATMENT|1968-05-17||||1971-04-13||1967-08-22
TRIAL STUDY 134XCP|VS|5AEA7EE9-1095-4967-B833-7665B6A71B31|1|||TEMP|TEMPERATURE|||STANDING, BENT FORWARD||M2|||IN|NOT DONE||PRESACRAL SPACE|RIGHT|Y|N|N|||NA|2||58||BASELINE|1963-03-03||||1963-03-25||1963-06-15
TRIAL STUDY 134XCP|VS|5AEA7EE9-1095-4967-B833-7665B6A71B31|2|||DBPAPCTL|DIASTOLIC BP-FOR-AGE PERCENTILE|||STANDING||M|||KCAL/DAY|NOT DONE||SUPRAPUBIC REGION|BILATERAL|U|NA|N|||NA|2||58||INDUCTION TREATMENT|1970-10-07||||1962-12-23||1966-09-12
TRIAL STUDY 134XCP|VS|5AEA7EE9-1095-4967-B833-7665B6A71B31|1|||NECKCIR|NECK CIRCUMFERENCE|||PRONE||KCAL/DAY|||BREATHS/MIN|NOT DONE||FEMORAL CONDYLE|UNILATERAL|NA|NA|U|||Y|3||39||CONTINUATION TREATMENT|1968-09-30||||1965-12-12||1963-03-31
TRIAL STUDY 134XCP|VS|5AEA7EE9-1095-4967-B833-7665B6A71B31|2|||FARMCIR|FOREARM CIRCUMFERENCE|||RIGHT LATERAL DECUBITUS||KCAL/DAY|||C|NOT DONE||PALATE|LEFT|Y|N|U|||U|3||39||TREATMENT|1963-03-23||||1970-12-19||1972-07-22
TRIAL STUDY 134XCP|VS|5AEA7EE9-1095-4967-B833-7665B6A71B31|1|||PULSE|PULSE RATE|||REVERSE TRENDELENBURG||IN|||KG|NOT DONE||GLOSSOPHARYNGEAL NERVE|BILATERAL|NA|U|U|||N|4||88||TREATMENT|1962-05-25||||1968-07-13||1972-09-05
TRIAL STUDY 134XCP|VS|5AEA7EE9-1095-4967-B833-7665B6A71B31|2|||SYSBP|SYSTOLIC BLOOD PRESSURE|||LEFT LATERAL DECUBITUS||PA|||MMHG|NOT DONE||HEPATIC VEIN|CONTRALATERAL|N|N|Y|||Y|4||88||LONG-TERM FOLLOW-UP|1961-03-14||||1969-07-14||1969-12-19
TRIAL STUDY 134XCP|VS|5AEA7EE9-1095-4967-B833-7665B6A71B31|1|||FTHDCIRC|FETAL HEAD CIRCUMFERENCE|||DECUBITUS||%|||HZ|NOT DONE||PROSTATE GLAND|LATERAL|NA|U|N|||NA|5||7||LONG-TERM FOLLOW-UP|1964-09-03||||1972-04-23||1963-01-18
TRIAL STUDY 134XCP|VS|5AEA7EE9-1095-4967-B833-7665B6A71B31|2|||CHESTCIR|CHEST CIRCUMFERENCE|||UNCONSTRAINED||RATIO|||LB|NOT DONE||SECOND RIGHT POSTEROLATERAL ARTERY|LEFT|Y|U|Y|||U|5||7||BASELINE|1966-07-29||||1969-11-16||1972-06-10
TRIAL STUDY 134XCP|VS|241CD521-D0BD-40BB-ABA2-B8C8E500B491|1|||SBPHPCTL|SYSTOLIC BP-FOR-HEIGHT PERCENTILE|||RIGHT LATERAL DECUBITUS||LB|||M|NOT DONE||CORONARY ARTERY|RIGHT|U|NA|U|||N|1||38||TREATMENT|1968-04-20||||1967-07-24||1960-06-10
TRIAL STUDY 134XCP|VS|241CD521-D0BD-40BB-ABA2-B8C8E500B491|2|||BODYFATM|BODY FAT MEASUREMENT|||SUPINE||WATT|||CMHG|NOT DONE||SPLEEN|CONTRALATERAL|Y|NA|NA|||Y|1||38||LONG-TERM FOLLOW-UP|1968-12-22||||1968-01-01||1968-10-24
TRIAL STUDY 134XCP|VS|241CD521-D0BD-40BB-ABA2-B8C8E500B491|1|||PULSEPR|PULSE PRESSURE|||TRENDELENBURG||CM|||KG|NOT DONE||ABDOMINAL LYMPH NODE|RIGHT|Y|U|N|||NA|2||58||WASHOUT|1969-09-11||||1967-07-22||1971-03-01
TRIAL STUDY 134XCP|VS|241CD521-D0BD-40BB-ABA2-B8C8E500B491|2|||SYSBP|SYSTOLIC BLOOD PRESSURE|||LEFT LATERAL DECUBITUS||M|||M2|NOT DONE||HEART, VENTRICULAR WALL|RIGHT|N|Y|N|||N|2||58||SCREENING|1971-07-21||||1968-06-17||1965-03-20
TRIAL STUDY 134XCP|VS|241CD521-D0BD-40BB-ABA2-B8C8E500B491|1|||IDEALWT|IDEAL BODY WEIGHT|||SEMI-FOWLERS||M2|||M2|NOT DONE||PERICARDIUM|IPSILATERAL|N|N|Y|||NA|3||39||CONTINUATION TREATMENT|1971-02-14||||1961-10-25||1967-11-24
TRIAL STUDY 134XCP|VS|241CD521-D0BD-40BB-ABA2-B8C8E500B491|2|||NECKCIR|NECK CIRCUMFERENCE|||PRONE||MM|||F|NOT DONE||PROFUNDA FEMORIS ARTERY|BILATERAL|U|Y|U|||Y|3||39||TREATMENT|1973-04-07||||1965-08-30||1961-03-04
TRIAL STUDY 134XCP|VS|241CD521-D0BD-40BB-ABA2-B8C8E500B491|1|||NECKCIR|NECK CIRCUMFERENCE|||SITTING, LEGS DEPENDENT||MMHG|||KG/M2|NOT DONE||SECOND DIAGONAL BRANCH ARTERY|CONTRALATERAL|NA|Y|Y|||Y|4||88||BLINDED TREATMENT|1969-07-27||||1961-05-06||1969-11-01
TRIAL STUDY 134XCP|VS|241CD521-D0BD-40BB-ABA2-B8C8E500B491|2|||SAO2FIO2|OXYGEN SATURATION/FRACTION INSPIRED O2|||RIGHT LATERAL DECUBITUS||PA|||C|NOT DONE||GENITOURINARY SYSTEM|RIGHT|N|U|U|||NA|4||88||BASELINE|1964-10-07||||1968-03-07||1967-08-17
TRIAL STUDY 134XCP|VS|241CD521-D0BD-40BB-ABA2-B8C8E500B491|1|||SBPAPCTL|SYSTOLIC BP-FOR-AGE PERCENTILE|||TRENDELENBURG||KCAL/DAY|||BEATS/MIN|NOT DONE||FEMALE GENITALIA|BILATERAL|N|NA|Y|||N|5||7||LONG-TERM FOLLOW-UP|1963-01-31||||1962-07-24||1964-01-08
TRIAL STUDY 134XCP|VS|241CD521-D0BD-40BB-ABA2-B8C8E500B491|2|||MUARMCIR|MID-UPPER ARM CIRCUMFERENCE|||RIGHT LATERAL DECUBITUS||M2|||LB|NOT DONE||OPPONENS POLLICIS MUSCLE|IPSILATERAL|Y|NA|U|||NA|5||7||LONG-TERM FOLLOW-UP|1971-08-25||||1972-02-11||1967-02-13
TRIAL STUDY 134XCP|VS|D37D2206-A2C1-4AC2-93B2-EDB213AF852F|1|||PULSEPR|PULSE PRESSURE|||PRONE||G|||F|NOT DONE||METATARSOPHALANGEAL JOINT 1|BILATERAL|U|Y|U|||U|1||38||INDUCTION TREATMENT|1970-09-08||||1972-08-26||1967-12-04
TRIAL STUDY 134XCP|VS|D37D2206-A2C1-4AC2-93B2-EDB213AF852F|2|||OXYSAT|OXYGEN SATURATION|||UNCONSTRAINED||M|||CMHG|NOT DONE||ETHMOID BONE|IPSILATERAL|Y|NA|Y|||NA|1||38||WASHOUT|1963-06-19||||1964-07-23||1962-02-04
TRIAL STUDY 134XCP|VS|D37D2206-A2C1-4AC2-93B2-EDB213AF852F|1|||BMI|BODY MASS INDEX|||FOWLERS||M|||MET|NOT DONE||CORONARY ARTERY, LEFT|UNILATERAL|N|Y|NA|||N|2||58||SCREENING|1969-03-05||||1966-11-29||1967-03-19
TRIAL STUDY 134XCP|VS|D37D2206-A2C1-4AC2-93B2-EDB213AF852F|2|||IDEALWT|IDEAL BODY WEIGHT|||SLING||BEATS/MIN|||BEATS/MIN|NOT DONE||DISTAL INTERPHALANGEAL JOINT 4 OF THE FOOT|RIGHT|NA|N|Y|||NA|2||58||INDUCTION TREATMENT|1970-02-27||||1967-05-22||1973-07-07
TRIAL STUDY 134XCP|VS|D37D2206-A2C1-4AC2-93B2-EDB213AF852F|1|||DIABP|DIASTOLIC BLOOD PRESSURE|||LEFT LATERAL DECUBITUS||G|||%|NOT DONE||BLADDER, FUNDUS|IPSILATERAL|NA|N|NA|||U|3||39||WASHOUT|1972-08-02||||1968-01-02||1962-03-12
TRIAL STUDY 134XCP|VS|D37D2206-A2C1-4AC2-93B2-EDB213AF852F|2|||SSSKNF|SUBSCAPULAR SKINFOLD THICKNESS|||TRENDELENBURG||C|||F|NOT DONE||CANINE TOOTH|IPSILATERAL|Y|U|U|||Y|3||39||FOLLOW-UP|1966-11-14||||1967-04-01||1968-01-15
TRIAL STUDY 134XCP|VS|D37D2206-A2C1-4AC2-93B2-EDB213AF852F|1|||TEMPPB|PERIPHERAL BODY TEMPERATURE|||UNCONSTRAINED||PA|||MM|NOT DONE||HARD PALATE|CONTRALATERAL|NA|U|NA|||U|4||88||OPEN LABEL TREATMENT|1972-10-27||||1963-10-19||1961-01-27
TRIAL STUDY 134XCP|VS|D37D2206-A2C1-4AC2-93B2-EDB213AF852F|2|||HIPCIR|HIP CIRCUMFERENCE|||SITTING||F|||KCAL/DAY|NOT DONE||SHIN|IPSILATERAL|Y|U|N|||U|4||88||INDUCTION TREATMENT|1967-11-16||||1961-02-06||1970-07-24
TRIAL STUDY 134XCP|VS|D37D2206-A2C1-4AC2-93B2-EDB213AF852F|1|||BMR|BASAL METABOLIC RATE|||RIGHT LATERAL DECUBITUS||%|||KG|NOT DONE||PERIPHERAL NERVE|UNILATERAL|N|N|NA|||NA|5||7||RUN-IN|1962-01-15||||1965-01-02||1967-11-17
TRIAL STUDY 134XCP|VS|D37D2206-A2C1-4AC2-93B2-EDB213AF852F|2|||HR|HEART RATE|||LATERAL DECUBITUS||KCAL/DAY|||CMHG|NOT DONE||ARTERY|IPSILATERAL|NA|Y|NA|||U|5||7||FOLLOW-UP|1973-09-08||||1970-04-27||1972-04-01
TRIAL STUDY 134XCP|VS|FAC78D40-3CBA-4D35-8911-64C0D25C3AE8|1|||LBM|LEAN BODY MASS|||LATERAL DECUBITUS||KCAL/DAY|||HZ|NOT DONE||OPTIC DISC|LATERAL|NA|NA|NA|||Y|1||38||INDUCTION TREATMENT|1961-10-18||||1973-08-09||1967-03-22
TRIAL STUDY 134XCP|VS|FAC78D40-3CBA-4D35-8911-64C0D25C3AE8|2|||ABSKNF|ABDOMINAL SKINFOLD THICKNESS|||SEMI-FOWLERS||LB|||CM|NOT DONE||RIB 4|LATERAL|U|N|Y|||U|1||38||INDUCTION TREATMENT|1968-02-05||||1960-07-17||1968-04-13
TRIAL STUDY 134XCP|VS|FAC78D40-3CBA-4D35-8911-64C0D25C3AE8|1|||ULNARL|ULNAR LENGTH|||DECUBITUS||HZ|||KG/M2|NOT DONE||BACK|UNILATERAL|U|NA|Y|||NA|2||58||OPEN LABEL TREATMENT|1973-03-26||||1969-12-27||1973-04-01
TRIAL STUDY 134XCP|VS|FAC78D40-3CBA-4D35-8911-64C0D25C3AE8|2|||FRMSIZE|BODY FRAME SIZE|||REVERSE TRENDELENBURG||BEATS/MIN|||C|NOT DONE||PROXIMAL PHALANX 4 OF THE HAND|LEFT|Y|N|Y|||U|2||58||CONTINUATION TREATMENT|1971-05-16||||1962-07-01||1961-05-08
TRIAL STUDY 134XCP|VS|FAC78D40-3CBA-4D35-8911-64C0D25C3AE8|1|||TEMP|TEMPERATURE|||PRONE||MMHG|||BREATHS/MIN|NOT DONE||GASTRIC CARDIA|CONTRALATERAL|NA|Y|N|||U|3||39||TREATMENT|1963-02-04||||1966-07-17||1961-01-04
TRIAL STUDY 134XCP|VS|FAC78D40-3CBA-4D35-8911-64C0D25C3AE8|2|||TRSKNF|TRICEPS SKINFOLD THICKNESS|||DECUBITUS||CM|||BREATHS/MIN|NOT DONE||HAND DIGIT 4|BILATERAL|N|NA|U|||NA|3||39||FOLLOW-UP|1964-08-20||||1970-09-28||1961-08-12
TRIAL STUDY 134XCP|VS|FAC78D40-3CBA-4D35-8911-64C0D25C3AE8|1|||WSTCIR|WAIST CIRCUMFERENCE|||LEFT LATERAL DECUBITUS||CMHG|||IN|NOT DONE||LINGULA OF THE LUNG|CONTRALATERAL|U|Y|Y|||N|4||88||SCREENING|1972-05-28||||1968-04-17||1973-07-12
TRIAL STUDY 134XCP|VS|FAC78D40-3CBA-4D35-8911-64C0D25C3AE8|2|||FRMSIZE|BODY FRAME SIZE|||SITTING||BREATHS/MIN|||BEATS/MIN|NOT DONE||LOWER JUGULAR LYMPH NODE|IPSILATERAL|U|Y|N|||N|4||88||BLINDED TREATMENT|1962-03-09||||1964-05-04||1969-12-28
TRIAL STUDY 134XCP|VS|FAC78D40-3CBA-4D35-8911-64C0D25C3AE8|1|||CRWNHEEL|CROWN-TO-HEEL LENGTH|||SITTING, LEGS DEPENDENT||LB|||PA|NOT DONE||BREAST|RIGHT|Y|U|U|||NA|5||7||OBSERVATION|1961-12-24||||1972-04-25||1965-03-02
TRIAL STUDY 134XCP|VS|FAC78D40-3CBA-4D35-8911-64C0D25C3AE8|2|||FTEWT|FETAL ESTIMATED WEIGHT|||REVERSE TRENDELENBURG||IN|||MMHG|NOT DONE||HEPATIC LYMPH NODE|LEFT|N|N|U|||NA|5||7||TREATMENT|1966-11-10||||1967-08-11||1967-06-22
TRIAL STUDY 134XCP|VS|FD609B1C-D1E7-4349-B036-DF0126D96A52|1|||FTWTGAPL|FETAL WEIGHT-FOR-GEST AGE PERCENTILE|||PRONE||BREATHS/MIN|||CM|NOT DONE||SUBCLAVIAN ARTERY|UNILATERAL|N|U|N|||N|1||38||BLINDED TREATMENT|1971-06-06||||1971-12-11||1966-01-14
TRIAL STUDY 134XCP|VS|FD609B1C-D1E7-4349-B036-DF0126D96A52|2|||BODLNGTH|BODY LENGTH|||LEFT LATERAL DECUBITUS||BEATS/MIN|||WATT|NOT DONE||MEDIAN OR LOWER CERVICAL LYMPH NODE|RIGHT|N|NA|NA|||N|1||38||INDUCTION TREATMENT|1967-07-02||||1964-08-06||1972-08-27
TRIAL STUDY 134XCP|VS|FD609B1C-D1E7-4349-B036-DF0126D96A52|1|||HTAPCTL|HEIGHT-FOR-AGE PERCENTILE|||SEMI-FOWLERS||MM|||KCAL/DAY|NOT DONE||ANTECUBITAL FOSSA|UNILATERAL|Y|Y|Y|||N|2||58||FOLLOW-UP|1963-03-28||||1971-09-04||1972-02-08
TRIAL STUDY 134XCP|VS|FD609B1C-D1E7-4349-B036-DF0126D96A52|2|||TBW|TOTAL BODY WATER|||SUPINE||KG/M2|||%|NOT DONE||COLON, DESCENDING|LATERAL|N|Y|NA|||N|2||58||BASELINE|1968-11-16||||1967-06-04||1962-12-10
TRIAL STUDY 134XCP|VS|FD609B1C-D1E7-4349-B036-DF0126D96A52|1|||HIPCIR|HIP CIRCUMFERENCE|||TRENDELENBURG||RATIO|||HZ|NOT DONE||RIB 10|BILATERAL|U|N|Y|||Y|3||39||BASELINE|1963-03-22||||1960-09-10||1973-01-16
TRIAL STUDY 134XCP|VS|FD609B1C-D1E7-4349-B036-DF0126D96A52|2|||SBPHPCTL|SYSTOLIC BP-FOR-HEIGHT PERCENTILE|||FOWLERS||%|||M|NOT DONE||FEMORAL VEIN|LEFT|N|NA|N|||N|3||39||SCREENING|1960-11-28||||1969-06-20||1967-01-16
TRIAL STUDY 134XCP|VS|FD609B1C-D1E7-4349-B036-DF0126D96A52|1|||BMR|BASAL METABOLIC RATE|||DECUBITUS||C|||M2|NOT DONE||CALF|RIGHT|N|NA|N|||NA|4||88||TREATMENT|1964-08-27||||1960-11-25||1966-03-29
TRIAL STUDY 134XCP|VS|FD609B1C-D1E7-4349-B036-DF0126D96A52|2|||SBPAPCTL|SYSTOLIC BP-FOR-AGE PERCENTILE|||STANDING, BENT FORWARD||HZ|||KG|NOT DONE||MEDIASTINUM, SUPERIOR|CONTRALATERAL|Y|N|N|||N|4||88||RUN-IN|1961-09-05||||1965-05-02||1966-07-30
TRIAL STUDY 134XCP|VS|FD609B1C-D1E7-4349-B036-DF0126D96A52|1|||CPLRFLT|CAPILLARY REFILL TIME|||SITTING, LEGS DEPENDENT||KG|||MMHG|NOT DONE||COLON, SIGMOID|LEFT|U|N|N|||N|5||7||RUN-IN|1967-03-10||||1968-08-17||1969-07-13
TRIAL STUDY 134XCP|VS|FD609B1C-D1E7-4349-B036-DF0126D96A52|2|||BODLNGTH|BODY LENGTH|||SLING||KG|||MET|NOT DONE||SUBMANDIBULAR LYMPH NODE|LEFT|NA|N|NA|||NA|5||7||FOLLOW-UP|1961-11-03||||1972-12-05||1962-03-11
TRIAL STUDY 134XCP|VS|DEB0593B-E3FD-471C-A800-43058AC5FD86|1|||LBM|LEAN BODY MASS|||SLING||C|||MM|NOT DONE||CORONARY ARTERY, RIGHT|CONTRALATERAL|U|N|NA|||NA|1||38||WASHOUT|1973-04-20||||1969-09-19||1968-08-13
TRIAL STUDY 134XCP|VS|DEB0593B-E3FD-471C-A800-43058AC5FD86|2|||MUARMCIR|MID-UPPER ARM CIRCUMFERENCE|||SEMI-RECUMBENT||KG|||RATIO|NOT DONE||INTERPHALANGEAL JOINT 5 OF THE HAND|LATERAL|U|U|Y|||NA|1||38||BASELINE|1966-01-26||||1970-08-09||1962-09-09
TRIAL STUDY 134XCP|VS|DEB0593B-E3FD-471C-A800-43058AC5FD86|1|||RESP|RESPIRATORY RATE|||SUPINE||MMHG|||M2|NOT DONE||JOINT|BILATERAL|Y|N|Y|||Y|2||58||BASELINE|1963-12-09||||1968-04-10||1966-04-14
TRIAL STUDY 134XCP|VS|DEB0593B-E3FD-471C-A800-43058AC5FD86|2|||BMIAPCTL|BMI-FOR-AGE PERCENTILE|||SEMI-FOWLERS||CMHG|||KG|NOT DONE||SEMINAL VESICLE|RIGHT|NA|N|NA|||N|2||58||CONTINUATION TREATMENT|1965-06-12||||1972-11-28||1962-12-17
TRIAL STUDY 134XCP|VS|DEB0593B-E3FD-471C-A800-43058AC5FD86|1|||FIO2|FRACTION OF INSPIRED OXYGEN|||SLING||KG|||WATT|NOT DONE||METATARSOPHALANGEAL JOINT 1|IPSILATERAL|N|U|Y|||NA|3||39||CONTINUATION TREATMENT|1972-11-26||||1969-05-11||1968-03-03
TRIAL STUDY 134XCP|VS|DEB0593B-E3FD-471C-A800-43058AC5FD86|2|||MUARMCIR|MID-UPPER ARM CIRCUMFERENCE|||STANDING||RATIO|||CM|NOT DONE||PANCREATIC DUCT|BILATERAL|NA|Y|NA|||U|3||39||RUN-IN|1963-10-27||||1960-02-03||1967-08-06
TRIAL STUDY 134XCP|VS|DEB0593B-E3FD-471C-A800-43058AC5FD86|1|||CPLRFLT|CAPILLARY REFILL TIME|||LATERAL DECUBITUS||BREATHS/MIN|||MMHG|NOT DONE||EYE BULGE|IPSILATERAL|NA|U|U|||U|4||88||TREATMENT|1969-07-05||||1969-11-24||1963-02-25
TRIAL STUDY 134XCP|VS|DEB0593B-E3FD-471C-A800-43058AC5FD86|2|||HR|HEART RATE|||SITTING||CMHG|||LB|NOT DONE||FLEXOR CARPI ULNARIS MUSCLE|LEFT|U|NA|NA|||NA|4||88||INDUCTION TREATMENT|1960-06-03||||1962-06-24||1969-11-12
TRIAL STUDY 134XCP|VS|DEB0593B-E3FD-471C-A800-43058AC5FD86|1|||CHESTCIR|CHEST CIRCUMFERENCE|||DECUBITUS||KCAL/DAY|||IN|NOT DONE||L4 VERTEBRA|IPSILATERAL|N|NA|N|||N|5||7||BLINDED TREATMENT|1964-05-01||||1964-06-04||1965-08-26
TRIAL STUDY 134XCP|VS|DEB0593B-E3FD-471C-A800-43058AC5FD86|2|||WEIGHT|WEIGHT|||SITTING||RATIO|||IN|NOT DONE||ESOPHAGUS, MIDDLE THIRD|IPSILATERAL|N|Y|Y|||U|5||7||LONG-TERM FOLLOW-UP|1962-02-28||||1969-06-10||1973-08-21
TRIAL STUDY 134XCP|VS|596BD728-2487-44E4-AFB1-8A4331EEDDF6|1|||TEMPCB|CORE BODY TEMPERATURE|||FOWLERS||M2|||K|NOT DONE||ILIOTIBIAL BAND|BILATERAL|NA|U|NA|||Y|1||38||WASHOUT|1966-09-20||||1965-08-17||1962-04-12
TRIAL STUDY 134XCP|VS|596BD728-2487-44E4-AFB1-8A4331EEDDF6|2|||HDCIRC|HEAD CIRCUMFERENCE|||FOWLERS||RATIO|||MMHG|NOT DONE||CLAVICLE|LATERAL|NA|Y|NA|||U|1||38||OPEN LABEL TREATMENT|1961-11-12||||1964-06-03||1968-03-29
TRIAL STUDY 134XCP|VS|596BD728-2487-44E4-AFB1-8A4331EEDDF6|1|||FTMANDL|FETAL MANDIBULAR LENGTH|||STANDING||MET|||IN|NOT DONE||SKIN OF THE TRUNK|IPSILATERAL|NA|NA|N|||Y|2||58||SCREENING|1968-01-21||||1960-11-28||1971-02-25
TRIAL STUDY 134XCP|VS|596BD728-2487-44E4-AFB1-8A4331EEDDF6|2|||PULSE|PULSE RATE|||PRONE||IN|||MM|NOT DONE||AXILLARY VEIN|IPSILATERAL|Y|NA|N|||NA|2||58||BLINDED TREATMENT|1961-09-29||||1972-05-31||1972-07-17
TRIAL STUDY 134XCP|VS|596BD728-2487-44E4-AFB1-8A4331EEDDF6|1|||BODLNGTH|BODY LENGTH|||STANDING, BENT FORWARD||KG/M2|||MET|NOT DONE||SKIN OF THE FOOT|LEFT|NA|U|Y|||U|3||39||OBSERVATION|1961-06-30||||1969-10-03||1968-12-28
TRIAL STUDY 134XCP|VS|596BD728-2487-44E4-AFB1-8A4331EEDDF6|2|||TEMPPB|PERIPHERAL BODY TEMPERATURE|||STANDING, BENT FORWARD||KCAL/DAY|||CMHG|NOT DONE||MEDIASTINUM, ANTERIOR|LATERAL|Y|NA|U|||NA|3||39||OPEN LABEL TREATMENT|1961-04-25||||1970-03-17||1962-12-14
TRIAL STUDY 134XCP|VS|596BD728-2487-44E4-AFB1-8A4331EEDDF6|1|||WSTCIR|WAIST CIRCUMFERENCE|||STANDING, BENT FORWARD||BREATHS/MIN|||KG/M2|NOT DONE||METATARSOPHALANGEAL JOINT 2|LEFT|Y|NA|U|||Y|4||88||WASHOUT|1965-04-29||||1969-02-20||1972-12-10
TRIAL STUDY 134XCP|VS|596BD728-2487-44E4-AFB1-8A4331EEDDF6|2|||FTHDCIRC|FETAL HEAD CIRCUMFERENCE|||SEMI-FOWLERS||MM|||KCAL/DAY|NOT DONE||FACIAL BONE|RIGHT|U|Y|NA|||Y|4||88||WASHOUT|1962-03-04||||1961-05-19||1960-12-21
TRIAL STUDY 134XCP|VS|596BD728-2487-44E4-AFB1-8A4331EEDDF6|1|||DBPHPCTL|DIASTOLIC BP-FOR-HEIGHT PERCENTILE|||LATERAL DECUBITUS||KG/M2|||LB|NOT DONE||AZYGOS VEIN|BILATERAL|NA|N|N|||U|5||7||RUN-IN|1961-06-04||||1966-08-06||1970-07-01
TRIAL STUDY 134XCP|VS|596BD728-2487-44E4-AFB1-8A4331EEDDF6|2|||FRMSIZE|BODY FRAME SIZE|||REVERSE TRENDELENBURG||KCAL/DAY|||K|NOT DONE||KIDNEY|RIGHT|N|NA|Y|||NA|5||7||TREATMENT|1967-01-26||||1963-06-17||1968-05-04
TRIAL STUDY 134XCP|VS|CAF30D22-3C56-48D4-AB55-46C09A21FDBF|1|||HTAPCTL|HEIGHT-FOR-AGE PERCENTILE|||LEFT LATERAL DECUBITUS||BEATS/MIN|||M2|NOT DONE||ILEUM, TERMINAL|BILATERAL|NA|U|U|||N|1||38||BASELINE|1970-04-14||||1962-07-20||1962-10-30
TRIAL STUDY 134XCP|VS|CAF30D22-3C56-48D4-AB55-46C09A21FDBF|2|||DBPAPCTL|DIASTOLIC BP-FOR-AGE PERCENTILE|||FOWLERS||G|||LB|NOT DONE||CORPUS CALLOSUM, BODY|BILATERAL|NA|NA|NA|||U|1||38||FOLLOW-UP|1961-06-09||||1967-07-21||1970-04-17
TRIAL STUDY 134XCP|VS|CAF30D22-3C56-48D4-AB55-46C09A21FDBF|1|||MAP|MEAN ARTERIAL PRESSURE|||FOWLERS||MET|||KG|NOT DONE||ACROMION|RIGHT|Y|Y|NA|||N|2||58||BLINDED TREATMENT|1962-10-03||||1965-11-02||1967-01-28
TRIAL STUDY 134XCP|VS|CAF30D22-3C56-48D4-AB55-46C09A21FDBF|2|||HIPCIR|HIP CIRCUMFERENCE|||SUPINE||IN|||WATT|NOT DONE||CAROTID ARTERY|RIGHT|U|NA|NA|||N|2||58||FOLLOW-UP|1969-02-22||||1963-05-17||1968-01-13
TRIAL STUDY 134XCP|VS|CAF30D22-3C56-48D4-AB55-46C09A21FDBF|1|||SAD|SAGITTAL ABDOMINAL DIAMETER|||UNCONSTRAINED||K|||KG/M2|NOT DONE||ELBOW JOINT|IPSILATERAL|N|N|N|||Y|3||39||OPEN LABEL TREATMENT|1973-06-20||||1967-01-16||1969-05-29
TRIAL STUDY 134XCP|VS|CAF30D22-3C56-48D4-AB55-46C09A21FDBF|2|||FARMCIR|FOREARM CIRCUMFERENCE|||STANDING||G|||KCAL/DAY|NOT DONE||SKIN OF THE THIGH|LEFT|U|U|N|||U|3||39||TREATMENT|1966-06-13||||1969-08-05||1971-08-27
TRIAL STUDY 134XCP|VS|CAF30D22-3C56-48D4-AB55-46C09A21FDBF|1|||BODLNGTH|BODY LENGTH|||UNCONSTRAINED||BREATHS/MIN|||MM|NOT DONE||CIRCUMFLEX ARTERY AV GROOVE CONTINUATION ARTERY|RIGHT|N|Y|NA|||Y|4||88||BLINDED TREATMENT|1971-10-16||||1961-12-28||1964-02-05
TRIAL STUDY 134XCP|VS|CAF30D22-3C56-48D4-AB55-46C09A21FDBF|2|||LBM|LEAN BODY MASS|||FOWLERS||BEATS/MIN|||WATT|NOT DONE||PALPEBRAL CONJUNCTIVA|CONTRALATERAL|U|Y|N|||U|4||88||OPEN LABEL TREATMENT|1961-04-09||||1965-04-21||1960-07-11
TRIAL STUDY 134XCP|VS|CAF30D22-3C56-48D4-AB55-46C09A21FDBF|1|||CHESTCIR|CHEST CIRCUMFERENCE|||STANDING||MM|||MM|NOT DONE||LUNG, RIGHT MIDDLE LOBE|BILATERAL|N|N|N|||NA|5||7||SCREENING|1967-02-22||||1969-02-22||1970-05-03
TRIAL STUDY 134XCP|VS|CAF30D22-3C56-48D4-AB55-46C09A21FDBF|2|||HIPCIR|HIP CIRCUMFERENCE|||STANDING||KG/M2|||CMHG|NOT DONE||DISTAL INTERPHALANGEAL JOINT 3 OF THE FOOT|IPSILATERAL|Y|Y|Y|||U|5||7||SCREENING|1960-09-30||||1962-11-21||1970-02-07
TRIAL STUDY 134XCP|VS|0365EB5F-7364-4B1F-8919-543D8D21B045|1|||WTHTPCTL|WEIGHT-FOR-HEIGHT PERCENTILE|||PRONE||BREATHS/MIN|||M2|NOT DONE||TRANSVERSE TARSAL JOINT|BILATERAL|Y|NA|N|||U|1||38||TREATMENT|1964-11-06||||1962-01-22||1965-03-22
TRIAL STUDY 134XCP|VS|0365EB5F-7364-4B1F-8919-543D8D21B045|2|||FTSAD|FETAL SAGITTAL ABDOMINAL DIAMETER|||STANDING||MMHG|||LB|NOT DONE||PROXIMAL INTERPHALANGEAL JOINT 5 OF THE HAND|LATERAL|N|U|N|||U|1||38||FOLLOW-UP|1965-09-13||||1967-02-09||1973-05-17
TRIAL STUDY 134XCP|VS|0365EB5F-7364-4B1F-8919-543D8D21B045|1|||MAXPREHR|MAXIMUM PREDICTED HEART RATE|||RIGHT LATERAL DECUBITUS||KCAL/DAY|||F|NOT DONE||INTERPHALANGEAL JOINT 2|BILATERAL|U|Y|Y|||N|2||58||TREATMENT|1966-12-28||||1968-07-10||1960-09-13
TRIAL STUDY 134XCP|VS|0365EB5F-7364-4B1F-8919-543D8D21B045|2|||HTAPCTL|HEIGHT-FOR-AGE PERCENTILE|||SITTING||WATT|||CM|NOT DONE||SKULL|IPSILATERAL|N|N|Y|||N|2||58||BLINDED TREATMENT|1961-01-30||||1968-03-22||1964-12-15
TRIAL STUDY 134XCP|VS|0365EB5F-7364-4B1F-8919-543D8D21B045|1|||SAO2FIO2|OXYGEN SATURATION/FRACTION INSPIRED O2|||SITTING||KG/M2|||HZ|NOT DONE||URETHRA, POSTERIOR|BILATERAL|N|U|NA|||Y|3||39||SCREENING|1960-02-16||||1969-06-26||1963-09-29
TRIAL STUDY 134XCP|VS|0365EB5F-7364-4B1F-8919-543D8D21B045|2|||BODYFATM|BODY FAT MEASUREMENT|||REVERSE TRENDELENBURG||M2|||MM|NOT DONE||CORNEAL EPITHELIUM|LATERAL|U|Y|N|||NA|3||39||BLINDED TREATMENT|1968-01-21||||1970-12-30||1970-06-27
TRIAL STUDY 134XCP|VS|0365EB5F-7364-4B1F-8919-543D8D21B045|1|||PULSE|PULSE RATE|||PRONE||LB|||%|NOT DONE||PARASYMPATHETIC GANGLIA|RIGHT|U|U|N|||N|4||88||TREATMENT|1963-06-17||||1971-05-14||1971-05-13
TRIAL STUDY 134XCP|VS|0365EB5F-7364-4B1F-8919-543D8D21B045|2|||TEMP|TEMPERATURE|||SITTING||BREATHS/MIN|||G|NOT DONE||ASCENDING AORTA, AORTIC ROOT|CONTRALATERAL|Y|N|N|||U|4||88||BASELINE|1970-04-25||||1961-09-26||1960-02-10
TRIAL STUDY 134XCP|VS|0365EB5F-7364-4B1F-8919-543D8D21B045|1|||SBPAPCTL|SYSTOLIC BP-FOR-AGE PERCENTILE|||STANDING||RATIO|||IN|NOT DONE||CAUDAL VERTEBRA|BILATERAL|NA|Y|U|||U|5||7||OBSERVATION|1969-04-13||||1967-05-16||1973-03-25
TRIAL STUDY 134XCP|VS|0365EB5F-7364-4B1F-8919-543D8D21B045|2|||TRSKNF|TRICEPS SKINFOLD THICKNESS|||FOWLERS||MM|||KCAL/DAY|NOT DONE||FEMALE REPRODUCTIVE SYSTEM|UNILATERAL|N|Y|NA|||NA|5||7||FOLLOW-UP|1972-12-13||||1969-09-24||1969-10-05
TRIAL STUDY 134XCP|VS|364277A8-875C-4A6F-93C3-C913BB3C97CA|1|||FARMCIR|FOREARM CIRCUMFERENCE|||SITTING, LEGS DEPENDENT||CMHG|||MMHG|NOT DONE||CINGULATE CORTEX|LATERAL|Y|U|Y|||N|1||38||BLINDED TREATMENT|1962-08-26||||1965-08-10||1969-05-24
TRIAL STUDY 134XCP|VS|364277A8-875C-4A6F-93C3-C913BB3C97CA|2|||WTAPCTL|WEIGHT-FOR-AGE PERCENTILE|||FOWLERS||C|||M2|NOT DONE||CHIN|RIGHT|Y|Y|N|||Y|1||38||RUN-IN|1961-04-22||||1973-07-16||1963-12-14
TRIAL STUDY 134XCP|VS|364277A8-875C-4A6F-93C3-C913BB3C97CA|1|||KNEEHEEL|KNEE TO HEEL LENGTH|||RIGHT LATERAL DECUBITUS||MET|||RATIO|NOT DONE||FUNDUS OF THE EYE|LATERAL|NA|U|Y|||N|2||58||SCREENING|1965-08-06||||1964-02-12||1969-05-10
TRIAL STUDY 134XCP|VS|364277A8-875C-4A6F-93C3-C913BB3C97CA|2|||IDEALWT|IDEAL BODY WEIGHT|||DECUBITUS||M2|||CMHG|NOT DONE||NUCLEUS ACCUMBENS|BILATERAL|U|U|Y|||N|2||58||RUN-IN|1967-09-05||||1973-07-05||1963-07-04
TRIAL STUDY 134XCP|VS|364277A8-875C-4A6F-93C3-C913BB3C97CA|1|||FTSAD|FETAL SAGITTAL ABDOMINAL DIAMETER|||REVERSE TRENDELENBURG||G|||KCAL/DAY|NOT DONE||METATARSOPHALANGEAL JOINT 5|IPSILATERAL|U|Y|Y|||N|3||39||TREATMENT|1965-06-06||||1968-04-27||1968-09-27
TRIAL STUDY 134XCP|VS|364277A8-875C-4A6F-93C3-C913BB3C97CA|2|||HEIGHT|HEIGHT|||REVERSE TRENDELENBURG||HZ|||CM|NOT DONE||CALCARINE SULCUS|RIGHT|U|Y|U|||Y|3||39||TREATMENT|1969-07-07||||1960-09-17||1972-12-19
TRIAL STUDY 134XCP|VS|364277A8-875C-4A6F-93C3-C913BB3C97CA|1|||DBPAPCTL|DIASTOLIC BP-FOR-AGE PERCENTILE|||LATERAL DECUBITUS||MM|||WATT|NOT DONE||GRACILIS MUSCLE|IPSILATERAL|NA|Y|Y|||N|4||88||BLINDED TREATMENT|1966-05-28||||1973-08-16||1968-12-16
TRIAL STUDY 134XCP|VS|364277A8-875C-4A6F-93C3-C913BB3C97CA|2|||BMI|BODY MASS INDEX|||LATERAL DECUBITUS||K|||KCAL/DAY|NOT DONE||ASCENDING AORTA|LEFT|NA|U|U|||Y|4||88||INDUCTION TREATMENT|1967-05-06||||1970-11-30||1961-08-21
TRIAL STUDY 134XCP|VS|364277A8-875C-4A6F-93C3-C913BB3C97CA|1|||FTEWT|FETAL ESTIMATED WEIGHT|||SLING||PA|||PA|NOT DONE||T10 VERTEBRA|LATERAL|U|N|NA|||U|5||7||FOLLOW-UP|1971-02-25||||1960-01-10||1971-09-07
TRIAL STUDY 134XCP|VS|364277A8-875C-4A6F-93C3-C913BB3C97CA|2|||BSA|BODY SURFACE AREA|||SITTING||BEATS/MIN|||KG|NOT DONE||ILEUM LYMPH NODE|BILATERAL|NA|Y|Y|||Y|5||7||CONTINUATION TREATMENT|1962-09-18||||1967-03-11||1963-01-26
TRIAL STUDY 134XCP|VS|B824951F-58EE-4003-A2AD-A91AADBBAC0D|1|||IDEALWT|IDEAL BODY WEIGHT|||SITTING||MM|||M2|NOT DONE||CLITORIS|LEFT|U|NA|N|||NA|1||38||BASELINE|1965-01-13||||1967-03-10||1963-12-21
TRIAL STUDY 134XCP|VS|B824951F-58EE-4003-A2AD-A91AADBBAC0D|2|||MAXPREHR|MAXIMUM PREDICTED HEART RATE|||SEMI-FOWLERS||KCAL/DAY|||MMHG|NOT DONE||RETROCRURAL LYMPH NODE|LATERAL|U|N|Y|||NA|1||38||FOLLOW-UP|1966-02-09||||1965-08-06||1967-02-01
TRIAL STUDY 134XCP|VS|B824951F-58EE-4003-A2AD-A91AADBBAC0D|1|||FARMCIR|FOREARM CIRCUMFERENCE|||SITTING||C|||WATT|NOT DONE||PERIURETERAL REGION|CONTRALATERAL|NA|NA|U|||N|2||58||RUN-IN|1972-09-02||||1973-05-05||1961-01-27
TRIAL STUDY 134XCP|VS|B824951F-58EE-4003-A2AD-A91AADBBAC0D|2|||BODLNGTH|BODY LENGTH|||DECUBITUS||HZ|||KCAL/DAY|NOT DONE||ORAL MUCOSA|IPSILATERAL|NA|Y|N|||NA|2||58||OBSERVATION|1966-07-27||||1965-06-10||1967-04-16
TRIAL STUDY 134XCP|VS|B824951F-58EE-4003-A2AD-A91AADBBAC0D|1|||FIO2|FRACTION OF INSPIRED OXYGEN|||TRENDELENBURG||MET|||K|NOT DONE||ILIAC CREST|BILATERAL|U|Y|Y|||Y|3||39||WASHOUT|1967-08-09||||1970-02-05||1972-01-26
TRIAL STUDY 134XCP|VS|B824951F-58EE-4003-A2AD-A91AADBBAC0D|2|||FTWTGAPL|FETAL WEIGHT-FOR-GEST AGE PERCENTILE|||REVERSE TRENDELENBURG||PA|||CMHG|NOT DONE||LUNG, RIGHT, MIDDLE LOBE, MEDIAL SEGMENT|LATERAL|U|N|Y|||U|3||39||INDUCTION TREATMENT|1968-07-13||||1971-10-08||1969-02-09
TRIAL STUDY 134XCP|VS|B824951F-58EE-4003-A2AD-A91AADBBAC0D|1|||BMI|BODY MASS INDEX|||SITTING||M2|||HZ|NOT DONE||HEART, RIGHT VENTRICULAR OUTFLOW TRACT|LATERAL|U|Y|NA|||U|4||88||BLINDED TREATMENT|1961-06-08||||1971-05-14||1965-05-01
TRIAL STUDY 134XCP|VS|B824951F-58EE-4003-A2AD-A91AADBBAC0D|2|||FTHR|FETAL HEART RATE|||STANDING||MET|||KG/M2|NOT DONE||MEDIASTINUM, MIDDLE|UNILATERAL|Y|NA|N|||N|4||88||CONTINUATION TREATMENT|1969-07-21||||1971-09-12||1966-01-01
TRIAL STUDY 134XCP|VS|B824951F-58EE-4003-A2AD-A91AADBBAC0D|1|||CHESTCIR|CHEST CIRCUMFERENCE|||REVERSE TRENDELENBURG||M|||K|NOT DONE||CIRCUMFLEX ARTERY AV GROOVE CONTINUATION ARTERY|CONTRALATERAL|NA|Y|NA|||N|5||7||RUN-IN|1973-03-30||||1961-12-29||1968-05-15
TRIAL STUDY 134XCP|VS|B824951F-58EE-4003-A2AD-A91AADBBAC0D|2|||PULSE|PULSE RATE|||SITTING||IN|||WATT|NOT DONE||PROXIMAL PHALANX 3 OF THE HAND|LEFT|NA|Y|U|||N|5||7||SCREENING|1971-06-06||||1961-04-10||1967-08-26
TRIAL STUDY 134XCP|VS|CEB92F29-B105-4F82-B0AC-CDDA2C7D3EE0|1|||ABSKNF|ABDOMINAL SKINFOLD THICKNESS|||REVERSE TRENDELENBURG||MM|||KG/M2|NOT DONE||TOOTH CANAL|BILATERAL|NA|NA|N|||NA|1||38||BASELINE|1965-12-18||||1963-12-07||1961-03-03
TRIAL STUDY 134XCP|VS|CEB92F29-B105-4F82-B0AC-CDDA2C7D3EE0|2|||BODLNGTH|BODY LENGTH|||TRENDELENBURG||F|||PA|NOT DONE||MEDIAN OR LOWER CERVICAL LYMPH NODE|LATERAL|NA|N|Y|||Y|1||38||BASELINE|1969-04-19||||1964-10-07||1962-10-07
TRIAL STUDY 134XCP|VS|CEB92F29-B105-4F82-B0AC-CDDA2C7D3EE0|1|||WSTCIR|WAIST CIRCUMFERENCE|||TRENDELENBURG||K|||K|NOT DONE||PROXIMAL PHALANX 2 OF THE HAND|BILATERAL|Y|NA|N|||Y|2||58||CONTINUATION TREATMENT|1964-01-19||||1962-01-14||1971-08-04
TRIAL STUDY 134XCP|VS|CEB92F29-B105-4F82-B0AC-CDDA2C7D3EE0|2|||DBPAPCTL|DIASTOLIC BP-FOR-AGE PERCENTILE|||TRENDELENBURG||HZ|||PA|NOT DONE||COLON LYMPH NODE|IPSILATERAL|U|Y|NA|||U|2||58||OBSERVATION|1964-11-16||||1969-12-04||1968-09-06
TRIAL STUDY 134XCP|VS|CEB92F29-B105-4F82-B0AC-CDDA2C7D3EE0|1|||MANDL|MANDIBULAR LENGTH|||LATERAL DECUBITUS||MET|||MET|NOT DONE||SUBMANDIBULAR LYMPH NODE|RIGHT|NA|Y|NA|||U|3||39||RUN-IN|1964-07-25||||1963-05-05||1960-08-22
TRIAL STUDY 134XCP|VS|CEB92F29-B105-4F82-B0AC-CDDA2C7D3EE0|2|||MAP|MEAN ARTERIAL PRESSURE|||DECUBITUS||M2|||BREATHS/MIN|NOT DONE||BRACHIAL LYMPH NODE|UNILATERAL|Y|NA|N|||NA|3||39||BLINDED TREATMENT|1962-07-13||||1970-07-10||1961-01-24
TRIAL STUDY 134XCP|VS|CEB92F29-B105-4F82-B0AC-CDDA2C7D3EE0|1|||INTP|INTERPRETATION|||DECUBITUS||CMHG|||F|NOT DONE||AORTIC VALVE, NON-CORONARY CUSP|RIGHT|NA|NA|Y|||NA|4||88||BASELINE|1964-04-25||||1970-08-10||1964-06-22
TRIAL STUDY 134XCP|VS|CEB92F29-B105-4F82-B0AC-CDDA2C7D3EE0|2|||FTHR|FETAL HEART RATE|||STANDING||MM|||MM|NOT DONE||T3 VERTEBRA|IPSILATERAL|Y|NA|N|||N|4||88||CONTINUATION TREATMENT|1962-08-08||||1969-07-11||1969-01-04
TRIAL STUDY 134XCP|VS|CEB92F29-B105-4F82-B0AC-CDDA2C7D3EE0|1|||MUARMCIR|MID-UPPER ARM CIRCUMFERENCE|||UNCONSTRAINED||CM|||HZ|NOT DONE||UTERINE ARTERY|UNILATERAL|U|N|U|||NA|5||7||CONTINUATION TREATMENT|1960-09-02||||1963-06-10||1963-10-20
TRIAL STUDY 134XCP|VS|CEB92F29-B105-4F82-B0AC-CDDA2C7D3EE0|2|||MUARMCIR|MID-UPPER ARM CIRCUMFERENCE|||SEMI-FOWLERS||%|||IN|NOT DONE||GLOTTIS|CONTRALATERAL|U|Y|Y|||U|5||7||CONTINUATION TREATMENT|1966-07-22||||1972-03-21||1972-03-27
TRIAL STUDY 134XCP|VS|A108F408-906C-4320-965A-D5D295BC5C31|1|||SBPAPCTL|SYSTOLIC BP-FOR-AGE PERCENTILE|||LEFT LATERAL DECUBITUS||WATT|||K|NOT DONE||SECOND DIAGONAL BRANCH ARTERY|RIGHT|N|NA|Y|||NA|1||38||BASELINE|1967-12-13||||1965-03-25||1961-09-12
TRIAL STUDY 134XCP|VS|A108F408-906C-4320-965A-D5D295BC5C31|2|||DIABP|DIASTOLIC BLOOD PRESSURE|||SITTING||M|||F|NOT DONE||ENDOCARDIUM|UNILATERAL|Y|U|Y|||U|1||38||BASELINE|1965-02-23||||1963-12-14||1964-10-30
TRIAL STUDY 134XCP|VS|A108F408-906C-4320-965A-D5D295BC5C31|1|||OXYSAT|OXYGEN SATURATION|||TRENDELENBURG||WATT|||MMHG|NOT DONE||TALUS|UNILATERAL|Y|U|N|||N|2||58||BASELINE|1972-09-20||||1964-09-13||1961-04-01
TRIAL STUDY 134XCP|VS|A108F408-906C-4320-965A-D5D295BC5C31|2|||NECKCIR|NECK CIRCUMFERENCE|||TRENDELENBURG||CMHG|||MM|NOT DONE||PRESACRAL LYMPH NODE|LATERAL|N|U|N|||NA|2||58||LONG-TERM FOLLOW-UP|1967-07-19||||1960-06-06||1966-06-09
TRIAL STUDY 134XCP|VS|A108F408-906C-4320-965A-D5D295BC5C31|1|||MAXPREHR|MAXIMUM PREDICTED HEART RATE|||SITTING||M|||F|NOT DONE||EPIGLOTTIS|UNILATERAL|NA|Y|U|||NA|3||39||FOLLOW-UP|1965-03-13||||1963-11-27||1968-03-03
TRIAL STUDY 134XCP|VS|A108F408-906C-4320-965A-D5D295BC5C31|2|||FIO2|FRACTION OF INSPIRED OXYGEN|||LEFT LATERAL DECUBITUS||G|||M2|NOT DONE||METATARSAL BONE|LATERAL|U|Y|N|||N|3||39||BLINDED TREATMENT|1968-10-27||||1960-10-26||1965-09-13
TRIAL STUDY 134XCP|VS|A108F408-906C-4320-965A-D5D295BC5C31|1|||FARMCIR|FOREARM CIRCUMFERENCE|||SITTING, LEGS DEPENDENT||PA|||BREATHS/MIN|NOT DONE||BRACHIAL LYMPH NODE|UNILATERAL|U|Y|NA|||U|4||88||LONG-TERM FOLLOW-UP|1968-12-31||||1960-06-11||1960-03-26
TRIAL STUDY 134XCP|VS|A108F408-906C-4320-965A-D5D295BC5C31|2|||RESP|RESPIRATORY RATE|||LATERAL DECUBITUS||KG/M2|||%|NOT DONE||FIRST DORSAL INTEROSSEOUS MUSCLE OF THE HAND|CONTRALATERAL|N|NA|N|||N|4||88||OBSERVATION|1966-09-20||||1962-08-30||1966-03-07
TRIAL STUDY 134XCP|VS|A108F408-906C-4320-965A-D5D295BC5C31|1|||BMR|BASAL METABOLIC RATE|||SEMI-RECUMBENT||MMHG|||%|NOT DONE||SPLENIC HILAR LYMPH NODE|IPSILATERAL|Y|NA|Y|||Y|5||7||RUN-IN|1967-08-13||||1968-07-08||1966-11-09
TRIAL STUDY 134XCP|VS|A108F408-906C-4320-965A-D5D295BC5C31|2|||ABSKNF|ABDOMINAL SKINFOLD THICKNESS|||RIGHT LATERAL DECUBITUS||CMHG|||C|NOT DONE||FEMORO-POPLITEAL PERIPHERAL ARTERY|BILATERAL|U|Y|N|||U|5||7||TREATMENT|1971-07-11||||1971-07-08||1973-02-28
TRIAL STUDY 134XCP|VS|8E627D27-4855-4E1B-B823-1E14368973AF|1|||HEIGHT|HEIGHT|||SUPINE||G|||PA|NOT DONE||CORPUS CALLOSUM, SPLENIUM|IPSILATERAL|U|U|U|||Y|1||38||LONG-TERM FOLLOW-UP|1968-01-06||||1967-08-17||1973-07-09
TRIAL STUDY 134XCP|VS|8E627D27-4855-4E1B-B823-1E14368973AF|2|||NECKCIR|NECK CIRCUMFERENCE|||FOWLERS||MMHG|||%|NOT DONE||UMBILICAL CORD|BILATERAL|NA|Y|U|||NA|1||38||SCREENING|1972-05-02||||1967-08-30||1968-12-26
TRIAL STUDY 134XCP|VS|8E627D27-4855-4E1B-B823-1E14368973AF|1|||ULNARL|ULNAR LENGTH|||SLING||C|||MM|NOT DONE||OCULOMOTOR NERVE|IPSILATERAL|Y|NA|NA|||N|2||58||BLINDED TREATMENT|1961-06-01||||1972-04-10||1967-06-27
TRIAL STUDY 134XCP|VS|8E627D27-4855-4E1B-B823-1E14368973AF|2|||FIO2|FRACTION OF INSPIRED OXYGEN|||DECUBITUS||KG|||CMHG|NOT DONE||GLENOID FOSSA|UNILATERAL|NA|Y|Y|||U|2||58||SCREENING|1965-01-09||||1970-10-25||1967-02-15
TRIAL STUDY 134XCP|VS|8E627D27-4855-4E1B-B823-1E14368973AF|1|||WEIGHT|WEIGHT|||SUPINE||BREATHS/MIN|||LB|NOT DONE||PRONATOR QUADRATUS MUSCLE|IPSILATERAL|Y|Y|Y|||N|3||39||WASHOUT|1966-02-22||||1967-06-06||1973-07-31
TRIAL STUDY 134XCP|VS|8E627D27-4855-4E1B-B823-1E14368973AF|2|||WTHTPCTL|WEIGHT-FOR-HEIGHT PERCENTILE|||SLING||IN|||RATIO|NOT DONE||INTERPHALANGEAL JOINT 1 OF THE FOOT|IPSILATERAL|N|NA|Y|||U|3||39||INDUCTION TREATMENT|1963-03-24||||1967-08-01||1965-10-22
TRIAL STUDY 134XCP|VS|8E627D27-4855-4E1B-B823-1E14368973AF|1|||MAXPREHR|MAXIMUM PREDICTED HEART RATE|||TRENDELENBURG||%|||KCAL/DAY|NOT DONE||ACETABULUM|CONTRALATERAL|N|NA|NA|||NA|4||88||RUN-IN|1962-01-23||||1961-01-11||1964-11-23
TRIAL STUDY 134XCP|VS|8E627D27-4855-4E1B-B823-1E14368973AF|2|||SYSBP|SYSTOLIC BLOOD PRESSURE|||STANDING, BENT FORWARD||WATT|||LB|NOT DONE||TRICUSPID VALVE, POSTERIOR CUSP|UNILATERAL|NA|U|Y|||Y|4||88||OBSERVATION|1965-06-15||||1965-08-21||1965-12-06
TRIAL STUDY 134XCP|VS|8E627D27-4855-4E1B-B823-1E14368973AF|1|||FTSAD|FETAL SAGITTAL ABDOMINAL DIAMETER|||STANDING||BREATHS/MIN|||C|NOT DONE||LEFT VENTRICULAR MID INFERIOR SEGMENT|BILATERAL|Y|N|N|||U|5||7||BLINDED TREATMENT|1969-11-05||||1961-10-08||1972-04-08
TRIAL STUDY 134XCP|VS|8E627D27-4855-4E1B-B823-1E14368973AF|2|||FTMANDL|FETAL MANDIBULAR LENGTH|||RIGHT LATERAL DECUBITUS||K|||BEATS/MIN|NOT DONE||MEDIAN NERVE|UNILATERAL|N|NA|Y|||NA|5||7||RUN-IN|1960-07-22||||1965-07-03||1960-12-07
TRIAL STUDY 134XCP|VS|9D1D7F4D-D1F6-4EC8-A3FB-59BB1F596ED2|1|||RESP|RESPIRATORY RATE|||LEFT LATERAL DECUBITUS||MET|||M2|NOT DONE||BRACHIAL LYMPH NODE|LATERAL|NA|N|Y|||U|1||38||FOLLOW-UP|1968-03-19||||1970-01-23||1964-09-20
TRIAL STUDY 134XCP|VS|9D1D7F4D-D1F6-4EC8-A3FB-59BB1F596ED2|2|||BMI|BODY MASS INDEX|||LEFT LATERAL DECUBITUS||MET|||C|NOT DONE||CALCANEUS|UNILATERAL|NA|Y|U|||N|1||38||INDUCTION TREATMENT|1969-10-06||||1973-01-16||1968-10-17
TRIAL STUDY 134XCP|VS|9D1D7F4D-D1F6-4EC8-A3FB-59BB1F596ED2|1|||BMI|BODY MASS INDEX|||TRENDELENBURG||LB|||IN|NOT DONE||T1 VERTEBRA|LATERAL|NA|U|Y|||U|2||58||INDUCTION TREATMENT|1962-04-20||||1970-10-13||1962-01-26
TRIAL STUDY 134XCP|VS|9D1D7F4D-D1F6-4EC8-A3FB-59BB1F596ED2|2|||FTWTGAPL|FETAL WEIGHT-FOR-GEST AGE PERCENTILE|||TRENDELENBURG||RATIO|||PA|NOT DONE||APPENDICEAL TIP|CONTRALATERAL|NA|U|U|||N|2||58||INDUCTION TREATMENT|1962-11-05||||1964-12-19||1969-05-04
TRIAL STUDY 134XCP|VS|9D1D7F4D-D1F6-4EC8-A3FB-59BB1F596ED2|1|||MUARMCIR|MID-UPPER ARM CIRCUMFERENCE|||SLING||KG|||RATIO|NOT DONE||PERIANAL REGION|CONTRALATERAL|U|NA|Y|||Y|3||39||TREATMENT|1961-03-25||||1972-06-28||1961-09-26
TRIAL STUDY 134XCP|VS|9D1D7F4D-D1F6-4EC8-A3FB-59BB1F596ED2|2|||MUARMCIR|MID-UPPER ARM CIRCUMFERENCE|||REVERSE TRENDELENBURG||MM|||MM|NOT DONE||RIB 6|CONTRALATERAL|Y|NA|U|||N|3||39||WASHOUT|1970-12-22||||1960-03-09||1969-04-15
TRIAL STUDY 134XCP|VS|9D1D7F4D-D1F6-4EC8-A3FB-59BB1F596ED2|1|||HEIGHT|HEIGHT|||SUPINE||MMHG|||BREATHS/MIN|NOT DONE||INTERPHALANGEAL JOINT 5 OF THE HAND|UNILATERAL|U|Y|Y|||NA|4||88||BASELINE|1963-11-09||||1967-04-04||1966-01-11
TRIAL STUDY 134XCP|VS|9D1D7F4D-D1F6-4EC8-A3FB-59BB1F596ED2|2|||TRSKNF|TRICEPS SKINFOLD THICKNESS|||SEMI-FOWLERS||MET|||%|NOT DONE||EARLOBE|BILATERAL|U|N|NA|||Y|4||88||SCREENING|1971-10-14||||1961-11-23||1960-02-27
TRIAL STUDY 134XCP|VS|9D1D7F4D-D1F6-4EC8-A3FB-59BB1F596ED2|1|||MAP|MEAN ARTERIAL PRESSURE|||SITTING, LEGS DEPENDENT||CM|||BEATS/MIN|NOT DONE||L6 VERTEBRA|LEFT|NA|Y|N|||Y|5||7||CONTINUATION TREATMENT|1973-06-22||||1968-05-31||1962-09-15
TRIAL STUDY 134XCP|VS|9D1D7F4D-D1F6-4EC8-A3FB-59BB1F596ED2|2|||TEMP|TEMPERATURE|||SLING||KG/M2|||M|NOT DONE||PULMONARY ARTERY BRANCH|UNILATERAL|N|U|U|||N|5||7||OPEN LABEL TREATMENT|1964-08-31||||1965-03-03||1962-07-18
TRIAL STUDY 134XCP|VS|483D89E1-45FD-41D4-B9E0-22FFB41D323A|1|||FTWTGAPL|FETAL WEIGHT-FOR-GEST AGE PERCENTILE|||LEFT LATERAL DECUBITUS||LB|||F|NOT DONE||COMMON FEMORAL VEIN|RIGHT|U|U|Y|||Y|1||38||WASHOUT|1961-02-14||||1972-10-12||1961-11-27
TRIAL STUDY 134XCP|VS|483D89E1-45FD-41D4-B9E0-22FFB41D323A|2|||FTHDCIRC|FETAL HEAD CIRCUMFERENCE|||LEFT LATERAL DECUBITUS||KCAL/DAY|||M2|NOT DONE||EYELASH|BILATERAL|NA|Y|N|||NA|1||38||WASHOUT|1971-08-28||||1963-07-19||1963-03-07
TRIAL STUDY 134XCP|VS|483D89E1-45FD-41D4-B9E0-22FFB41D323A|1|||FARMCIR|FOREARM CIRCUMFERENCE|||STANDING||CM|||PA|NOT DONE||ELBOW FLEXOR MUSCLES|BILATERAL|U|U|NA|||N|2||58||BLINDED TREATMENT|1965-04-20||||1964-02-06||1965-03-30
TRIAL STUDY 134XCP|VS|483D89E1-45FD-41D4-B9E0-22FFB41D323A|2|||HR|HEART RATE|||DECUBITUS||LB|||M2|NOT DONE||ANTERIOR SUPERIOR ILIAC SPINE|UNILATERAL|U|N|NA|||Y|2||58||TREATMENT|1968-03-07||||1960-12-09||1966-09-16
TRIAL STUDY 134XCP|VS|483D89E1-45FD-41D4-B9E0-22FFB41D323A|1|||SSSKNF|SUBSCAPULAR SKINFOLD THICKNESS|||FOWLERS||KG/M2|||MET|NOT DONE||BODY OF STOMACH|RIGHT|Y|NA|Y|||Y|3||39||LONG-TERM FOLLOW-UP|1970-05-31||||1972-02-24||1964-11-23
TRIAL STUDY 134XCP|VS|483D89E1-45FD-41D4-B9E0-22FFB41D323A|2|||SYSBP|SYSTOLIC BLOOD PRESSURE|||SEMI-FOWLERS||%|||BEATS/MIN|NOT DONE||SCALP|BILATERAL|NA|N|U|||Y|3||39||SCREENING|1960-12-31||||1971-09-07||1965-08-19
TRIAL STUDY 134XCP|VS|483D89E1-45FD-41D4-B9E0-22FFB41D323A|1|||TRSKNF|TRICEPS SKINFOLD THICKNESS|||DECUBITUS||BREATHS/MIN|||CMHG|NOT DONE||MOTOR CORTEX|LEFT|N|U|N|||U|4||88||WASHOUT|1963-10-04||||1970-10-22||1968-01-07
TRIAL STUDY 134XCP|VS|483D89E1-45FD-41D4-B9E0-22FFB41D323A|2|||DIABP|DIASTOLIC BLOOD PRESSURE|||SUPINE||M|||MMHG|NOT DONE||CAPITATE-LUNATE JOINT|RIGHT|U|N|N|||NA|4||88||LONG-TERM FOLLOW-UP|1964-06-17||||1972-09-02||1966-10-15
TRIAL STUDY 134XCP|VS|483D89E1-45FD-41D4-B9E0-22FFB41D323A|1|||FARMCIR|FOREARM CIRCUMFERENCE|||SEMI-RECUMBENT||CMHG|||%|NOT DONE||CARPAL BONE|LATERAL|NA|Y|NA|||Y|5||7||CONTINUATION TREATMENT|1962-01-16||||1972-02-16||1966-07-17
TRIAL STUDY 134XCP|VS|483D89E1-45FD-41D4-B9E0-22FFB41D323A|2|||MAP|MEAN ARTERIAL PRESSURE|||STANDING, BENT FORWARD||MM|||MET|NOT DONE||NAIL|RIGHT|U|N|N|||N|5||7||OPEN LABEL TREATMENT|1963-04-05||||1971-05-31||1970-10-17
TRIAL STUDY 134XCP|VS|2CCBED9D-5F24-4ED8-B575-8523C820A227|1|||HDCIRC|HEAD CIRCUMFERENCE|||FOWLERS||BEATS/MIN|||IN|NOT DONE||HAIR FOLLICLE|LATERAL|U|N|Y|||N|1||38||SCREENING|1968-10-20||||1966-10-15||1968-12-02
TRIAL STUDY 134XCP|VS|2CCBED9D-5F24-4ED8-B575-8523C820A227|2|||FTHR|FETAL HEART RATE|||RIGHT LATERAL DECUBITUS||WATT|||BREATHS/MIN|NOT DONE||COLON, SPLENIC FLEXURE|BILATERAL|U|U|U|||Y|1||38||BASELINE|1960-08-15||||1967-01-13||1965-10-04
TRIAL STUDY 134XCP|VS|2CCBED9D-5F24-4ED8-B575-8523C820A227|1|||DBPHPCTL|DIASTOLIC BP-FOR-HEIGHT PERCENTILE|||SUPINE||%|||MMHG|NOT DONE||CORONARY ARTERY, LEFT|LEFT|Y|Y|N|||U|2||58||BLINDED TREATMENT|1963-01-27||||1971-11-27||1961-06-02
TRIAL STUDY 134XCP|VS|2CCBED9D-5F24-4ED8-B575-8523C820A227|2|||DBPAPCTL|DIASTOLIC BP-FOR-AGE PERCENTILE|||FOWLERS||IN|||WATT|NOT DONE||ADDUCTOR HALLUCIS MUSCLE, OBLIQUE HEAD|CONTRALATERAL|NA|NA|Y|||N|2||58||SCREENING|1968-06-07||||1968-09-02||1963-09-07
TRIAL STUDY 134XCP|VS|2CCBED9D-5F24-4ED8-B575-8523C820A227|1|||CRWNHEEL|CROWN-TO-HEEL LENGTH|||RIGHT LATERAL DECUBITUS||MET|||RATIO|NOT DONE||ANTRUM PYLORI|LEFT|U|NA|U|||Y|3||39||OPEN LABEL TREATMENT|1972-09-14||||1964-10-18||1968-01-07
TRIAL STUDY 134XCP|VS|2CCBED9D-5F24-4ED8-B575-8523C820A227|2|||DBPAPCTL|DIASTOLIC BP-FOR-AGE PERCENTILE|||STANDING||HZ|||LB|NOT DONE||LEFT MAIN CORONARY ARTERY BIFURCATION|LATERAL|N|N|U|||N|3||39||CONTINUATION TREATMENT|1962-02-06||||1966-03-04||1964-07-03
TRIAL STUDY 134XCP|VS|2CCBED9D-5F24-4ED8-B575-8523C820A227|1|||BODLNGTH|BODY LENGTH|||SITTING, LEGS DEPENDENT||F|||RATIO|NOT DONE||HEART, VENTRICULAR WALL|BILATERAL|NA|Y|N|||N|4||88||BLINDED TREATMENT|1968-07-01||||1964-08-24||1961-08-24
TRIAL STUDY 134XCP|VS|2CCBED9D-5F24-4ED8-B575-8523C820A227|2|||BMR|BASAL METABOLIC RATE|||TRENDELENBURG||F|||G|NOT DONE||ENDOMETRIAL CAVITY|RIGHT|Y|Y|Y|||NA|4||88||OPEN LABEL TREATMENT|1970-08-29||||1970-01-30||1973-05-17
TRIAL STUDY 134XCP|VS|2CCBED9D-5F24-4ED8-B575-8523C820A227|1|||SBPAPCTL|SYSTOLIC BP-FOR-AGE PERCENTILE|||STANDING, BENT FORWARD||KG/M2|||KG|NOT DONE||ARTERY|IPSILATERAL|NA|U|N|||Y|5||7||OBSERVATION|1966-04-08||||1970-03-16||1966-04-26
TRIAL STUDY 134XCP|VS|2CCBED9D-5F24-4ED8-B575-8523C820A227|2|||HR|HEART RATE|||RIGHT LATERAL DECUBITUS||F|||MET|NOT DONE||LUMBAR SPINE|CONTRALATERAL|Y|U|U|||Y|5||7||OBSERVATION|1966-08-25||||1972-04-22||1963-04-19
TRIAL STUDY 134XCP|VS|F4D6A28D-569F-4639-ACE2-10EB517128B2|1|||BMR|BASAL METABOLIC RATE|||LEFT LATERAL DECUBITUS||WATT|||K|NOT DONE||VAGINA|IPSILATERAL|N|U|Y|||N|1||38||WASHOUT|1966-05-07||||1969-01-30||1973-06-16
TRIAL STUDY 134XCP|VS|F4D6A28D-569F-4639-ACE2-10EB517128B2|2|||SSSKNF|SUBSCAPULAR SKINFOLD THICKNESS|||FOWLERS||M|||M|NOT DONE||PROXIMAL URETHRA|CONTRALATERAL|NA|N|N|||NA|1||38||TREATMENT|1967-03-30||||1972-01-22||1964-06-01
TRIAL STUDY 134XCP|VS|F4D6A28D-569F-4639-ACE2-10EB517128B2|1|||BODYFATM|BODY FAT MEASUREMENT|||SLING||MM|||WATT|NOT DONE||RIGHT VENTRICULAR BRANCH|LATERAL|Y|U|NA|||NA|2||58||BASELINE|1960-07-22||||1960-01-27||1962-04-11
TRIAL STUDY 134XCP|VS|F4D6A28D-569F-4639-ACE2-10EB517128B2|2|||WSTCIR|WAIST CIRCUMFERENCE|||RIGHT LATERAL DECUBITUS||IN|||MET|NOT DONE||GALLBLADDER|UNILATERAL|NA|Y|N|||Y|2||58||SCREENING|1972-06-04||||1969-12-23||1970-09-09
TRIAL STUDY 134XCP|VS|F4D6A28D-569F-4639-ACE2-10EB517128B2|1|||BODYFATM|BODY FAT MEASUREMENT|||REVERSE TRENDELENBURG||BREATHS/MIN|||MMHG|NOT DONE||ULNAR ARTERY|CONTRALATERAL|N|U|U|||N|3||39||INDUCTION TREATMENT|1961-11-07||||1972-09-11||1973-05-12
TRIAL STUDY 134XCP|VS|F4D6A28D-569F-4639-ACE2-10EB517128B2|2|||HIPCIR|HIP CIRCUMFERENCE|||REVERSE TRENDELENBURG||K|||PA|NOT DONE||VENOUS SINUS|CONTRALATERAL|Y|Y|Y|||Y|3||39||BLINDED TREATMENT|1969-04-05||||1970-01-13||1963-09-30
TRIAL STUDY 134XCP|VS|F4D6A28D-569F-4639-ACE2-10EB517128B2|1|||WEIGHT|WEIGHT|||TRENDELENBURG||IN|||KG/M2|NOT DONE||GINGIVA|LEFT|N|Y|Y|||N|4||88||OPEN LABEL TREATMENT|1961-02-22||||1970-09-20||1963-06-02
TRIAL STUDY 134XCP|VS|F4D6A28D-569F-4639-ACE2-10EB517128B2|2|||FTEWT|FETAL ESTIMATED WEIGHT|||LEFT LATERAL DECUBITUS||KCAL/DAY|||F|NOT DONE||PAROTID GLAND LYMPH NODE|IPSILATERAL|U|NA|NA|||Y|4||88||BLINDED TREATMENT|1971-05-06||||1960-07-03||1969-07-10
TRIAL STUDY 134XCP|VS|F4D6A28D-569F-4639-ACE2-10EB517128B2|1|||FTSAD|FETAL SAGITTAL ABDOMINAL DIAMETER|||STANDING, BENT FORWARD||G|||CM|NOT DONE||DIGIT|LEFT|U|Y|Y|||U|5||7||OPEN LABEL TREATMENT|1966-08-09||||1970-04-22||1966-12-08
TRIAL STUDY 134XCP|VS|F4D6A28D-569F-4639-ACE2-10EB517128B2|2|||INTP|INTERPRETATION|||UNCONSTRAINED||BEATS/MIN|||WATT|NOT DONE||OLFACTORY MUCOSA|BILATERAL|NA|U|N|||Y|5||7||WASHOUT|1971-07-27||||1960-12-05||1963-06-02
TRIAL STUDY 134XCP|VS|7ABB925B-2CB5-498A-9E20-E1A2BE4E50DA|1|||TEMP|TEMPERATURE|||DECUBITUS||K|||CM|NOT DONE||JEJUNUM|CONTRALATERAL|NA|N|Y|||U|1||38||RUN-IN|1969-03-09||||1965-10-08||1967-03-29
TRIAL STUDY 134XCP|VS|7ABB925B-2CB5-498A-9E20-E1A2BE4E50DA|2|||FTHR|FETAL HEART RATE|||DECUBITUS||PA|||G|NOT DONE||L3 VERTEBRA|LATERAL|NA|U|Y|||NA|1||38||CONTINUATION TREATMENT|1966-04-08||||1970-02-16||1969-12-03
TRIAL STUDY 134XCP|VS|7ABB925B-2CB5-498A-9E20-E1A2BE4E50DA|1|||DIABP|DIASTOLIC BLOOD PRESSURE|||SITTING, LEGS DEPENDENT||M2|||RATIO|NOT DONE||SUPRAGLOTTIS|UNILATERAL|N|U|N|||U|2||58||BASELINE|1970-07-02||||1966-12-20||1963-12-16
TRIAL STUDY 134XCP|VS|7ABB925B-2CB5-498A-9E20-E1A2BE4E50DA|2|||HIPCIR|HIP CIRCUMFERENCE|||LATERAL DECUBITUS||KG|||K|NOT DONE||ANAL CANAL|LATERAL|NA|U|Y|||U|2||58||OPEN LABEL TREATMENT|1973-08-05||||1972-10-27||1963-07-25
TRIAL STUDY 134XCP|VS|7ABB925B-2CB5-498A-9E20-E1A2BE4E50DA|1|||DBPHPCTL|DIASTOLIC BP-FOR-HEIGHT PERCENTILE|||DECUBITUS||CM|||C|NOT DONE||FLOOR OF MOUTH|LATERAL|U|N|N|||N|3||39||OPEN LABEL TREATMENT|1970-04-09||||1961-11-17||1966-10-03
TRIAL STUDY 134XCP|VS|7ABB925B-2CB5-498A-9E20-E1A2BE4E50DA|2|||BMIAPCTL|BMI-FOR-AGE PERCENTILE|||UNCONSTRAINED||KG|||KCAL/DAY|NOT DONE||SKIN AROUND THE MOUTH|IPSILATERAL|NA|NA|NA|||N|3||39||WASHOUT|1960-06-17||||1970-12-06||1966-06-25
TRIAL STUDY 134XCP|VS|7ABB925B-2CB5-498A-9E20-E1A2BE4E50DA|1|||BODYFATM|BODY FAT MEASUREMENT|||SEMI-RECUMBENT||MET|||C|NOT DONE||TOOTH|UNILATERAL|N|U|NA|||NA|4||88||TREATMENT|1964-03-12||||1963-01-20||1972-06-27
TRIAL STUDY 134XCP|VS|7ABB925B-2CB5-498A-9E20-E1A2BE4E50DA|2|||HEIGHT|HEIGHT|||SITTING||WATT|||G|NOT DONE||LUNG|LEFT|U|N|U|||N|4||88||LONG-TERM FOLLOW-UP|1960-06-19||||1961-08-01||1969-08-01
TRIAL STUDY 134XCP|VS|7ABB925B-2CB5-498A-9E20-E1A2BE4E50DA|1|||HR|HEART RATE|||RIGHT LATERAL DECUBITUS||M2|||CM|NOT DONE||METACARPOPHALANGEAL JOINT 5|RIGHT|Y|NA|Y|||NA|5||7||BLINDED TREATMENT|1972-03-25||||1967-10-30||1972-07-18
TRIAL STUDY 134XCP|VS|7ABB925B-2CB5-498A-9E20-E1A2BE4E50DA|2|||LBM|LEAN BODY MASS|||STANDING, BENT FORWARD||G|||MMHG|NOT DONE||RETROPERITONEAL LYMPH NODE|IPSILATERAL|NA|Y|U|||U|5||7||BASELINE|1973-02-19||||1967-06-22||1960-01-09
TRIAL STUDY 134XCP|VS|415EF35E-6D99-48F8-80A1-89A4CDC621B8|1|||FIO2|FRACTION OF INSPIRED OXYGEN|||SEMI-RECUMBENT||IN|||M2|NOT DONE||SPLENIC ARTERY|BILATERAL|U|Y|N|||N|1||38||OBSERVATION|1971-06-06||||1963-06-21||1967-10-15
TRIAL STUDY 134XCP|VS|415EF35E-6D99-48F8-80A1-89A4CDC621B8|2|||WSTCIR|WAIST CIRCUMFERENCE|||RIGHT LATERAL DECUBITUS||PA|||C|NOT DONE||PERICARDIAL LYMPH NODE|LEFT|NA|U|Y|||Y|1||38||CONTINUATION TREATMENT|1968-12-16||||1964-08-12||1970-06-05
TRIAL STUDY 134XCP|VS|415EF35E-6D99-48F8-80A1-89A4CDC621B8|1|||FRMSIZE|BODY FRAME SIZE|||SEMI-FOWLERS||G|||KCAL/DAY|NOT DONE||EPIDURAL SPACE|IPSILATERAL|N|NA|NA|||U|2||58||BASELINE|1969-07-30||||1967-03-05||1968-12-20
TRIAL STUDY 134XCP|VS|415EF35E-6D99-48F8-80A1-89A4CDC621B8|2|||BODYFATM|BODY FAT MEASUREMENT|||LATERAL DECUBITUS||LB|||MET|NOT DONE||PELVIC LYMPH NODE|RIGHT|N|Y|Y|||NA|2||58||SCREENING|1971-01-07||||1963-09-08||1967-11-12
TRIAL STUDY 134XCP|VS|415EF35E-6D99-48F8-80A1-89A4CDC621B8|1|||SYSBP|SYSTOLIC BLOOD PRESSURE|||STANDING||BREATHS/MIN|||CMHG|NOT DONE||MIDDLE PHALANX 3 OF THE HAND|IPSILATERAL|U|Y|Y|||U|3||39||OPEN LABEL TREATMENT|1966-04-04||||1967-10-06||1963-07-25
TRIAL STUDY 134XCP|VS|415EF35E-6D99-48F8-80A1-89A4CDC621B8|2|||TBW|TOTAL BODY WATER|||REVERSE TRENDELENBURG||LB|||C|NOT DONE||STERNOCLAVICULAR JOINT|IPSILATERAL|NA|U|U|||N|3||39||LONG-TERM FOLLOW-UP|1963-10-17||||1972-09-11||1972-11-09
TRIAL STUDY 134XCP|VS|415EF35E-6D99-48F8-80A1-89A4CDC621B8|1|||HDCIRC|HEAD CIRCUMFERENCE|||SITTING||CMHG|||HZ|NOT DONE||THYROID GLAND ISTHMUS|LEFT|N|NA|N|||Y|4||88||TREATMENT|1971-04-21||||1972-03-14||1970-08-30
TRIAL STUDY 134XCP|VS|415EF35E-6D99-48F8-80A1-89A4CDC621B8|2|||SSSKNF|SUBSCAPULAR SKINFOLD THICKNESS|||RIGHT LATERAL DECUBITUS||CMHG|||K|NOT DONE||LEG SKIN|LATERAL|U|N|U|||N|4||88||FOLLOW-UP|1962-11-25||||1967-08-02||1967-05-19
TRIAL STUDY 134XCP|VS|415EF35E-6D99-48F8-80A1-89A4CDC621B8|1|||WTHTPCTL|WEIGHT-FOR-HEIGHT PERCENTILE|||SITTING, LEGS DEPENDENT||C|||K|NOT DONE||POSTERIOR CERVICAL LYMPH NODE|UNILATERAL|Y|NA|Y|||NA|5||7||TREATMENT|1969-01-13||||1964-06-06||1969-10-22
TRIAL STUDY 134XCP|VS|415EF35E-6D99-48F8-80A1-89A4CDC621B8|2|||BODLNGTH|BODY LENGTH|||SITTING, LEGS DEPENDENT||MET|||MM|NOT DONE||FACE|LEFT|Y|NA|NA|||U|5||7||FOLLOW-UP|1970-09-24||||1972-11-14||1961-02-11
TRIAL STUDY 134XCP|VS|AA0F6192-A377-43C6-8203-BDF7553AEA88|1|||WEIGHT|WEIGHT|||TRENDELENBURG||M|||G|NOT DONE||ELBOW JOINT|BILATERAL|N|U|NA|||N|1||38||TREATMENT|1961-08-22||||1960-08-03||1970-01-02
TRIAL STUDY 134XCP|VS|AA0F6192-A377-43C6-8203-BDF7553AEA88|2|||INTP|INTERPRETATION|||SITTING, LEGS DEPENDENT||LB|||BREATHS/MIN|NOT DONE||CLAW|RIGHT|U|NA|U|||N|1||38||FOLLOW-UP|1964-10-06||||1965-12-02||1971-05-26
TRIAL STUDY 134XCP|VS|AA0F6192-A377-43C6-8203-BDF7553AEA88|1|||INTP|INTERPRETATION|||LATERAL DECUBITUS||K|||M2|NOT DONE||PAROTID GLAND LYMPH NODE|RIGHT|Y|U|U|||NA|2||58||OPEN LABEL TREATMENT|1968-08-23||||1972-07-01||1970-11-10
TRIAL STUDY 134XCP|VS|AA0F6192-A377-43C6-8203-BDF7553AEA88|2|||SYSBP|SYSTOLIC BLOOD PRESSURE|||LEFT LATERAL DECUBITUS||KCAL/DAY|||K|NOT DONE||PROXIMAL INTERPHALANGEAL JOINT 5 OF THE HAND|BILATERAL|U|NA|N|||U|2||58||LONG-TERM FOLLOW-UP|1972-06-07||||1973-03-13||1969-02-17
TRIAL STUDY 134XCP|VS|AA0F6192-A377-43C6-8203-BDF7553AEA88|1|||BODLNGTH|BODY LENGTH|||SITTING, LEGS DEPENDENT||LB|||LB|NOT DONE||DELTOID MUSCLE|CONTRALATERAL|U|Y|NA|||U|3||39||TREATMENT|1964-02-15||||1972-08-03||1966-02-20
TRIAL STUDY 134XCP|VS|AA0F6192-A377-43C6-8203-BDF7553AEA88|2|||BODLNGTH|BODY LENGTH|||SLING||%|||M2|NOT DONE||FLOOR OF MOUTH|UNILATERAL|Y|U|U|||N|3||39||RUN-IN|1967-09-25||||1962-10-13||1965-09-22
TRIAL STUDY 134XCP|VS|AA0F6192-A377-43C6-8203-BDF7553AEA88|1|||DBPHPCTL|DIASTOLIC BP-FOR-HEIGHT PERCENTILE|||FOWLERS||IN|||MMHG|NOT DONE||HAND|RIGHT|N|NA|Y|||N|4||88||TREATMENT|1972-03-13||||1972-12-29||1966-07-10
TRIAL STUDY 134XCP|VS|AA0F6192-A377-43C6-8203-BDF7553AEA88|2|||SAO2FIO2|OXYGEN SATURATION/FRACTION INSPIRED O2|||TRENDELENBURG||BEATS/MIN|||CM|NOT DONE||RIB 2|LEFT|N|Y|NA|||N|4||88||WASHOUT|1964-03-10||||1963-07-20||1963-08-14
TRIAL STUDY 134XCP|VS|AA0F6192-A377-43C6-8203-BDF7553AEA88|1|||PULSEPR|PULSE PRESSURE|||LATERAL DECUBITUS||IN|||F|NOT DONE||HEEL OF THE FOOT|BILATERAL|NA|N|NA|||NA|5||7||TREATMENT|1964-06-11||||1969-07-30||1963-05-26
TRIAL STUDY 134XCP|VS|AA0F6192-A377-43C6-8203-BDF7553AEA88|2|||OXYSAT|OXYGEN SATURATION|||REVERSE TRENDELENBURG||CM|||CMHG|NOT DONE||BRACHIALIS MUSCLE|LEFT|Y|Y|U|||Y|5||7||BLINDED TREATMENT|1965-01-19||||1967-10-08||1969-02-05
TRIAL STUDY 134XCP|VS|99DEAF5F-4F2A-4BFC-ABE7-E947C8FB8162|1|||CRWNHEEL|CROWN-TO-HEEL LENGTH|||TRENDELENBURG||WATT|||RATIO|NOT DONE||PORTAL LYMPH NODE|RIGHT|NA|U|N|||NA|1||38||TREATMENT|1972-08-11||||1962-01-18||1968-01-08
TRIAL STUDY 134XCP|VS|99DEAF5F-4F2A-4BFC-ABE7-E947C8FB8162|2|||FRMSIZE|BODY FRAME SIZE|||TRENDELENBURG||KG|||K|NOT DONE||GALLBLADDER|IPSILATERAL|Y|N|U|||U|1||38||BLINDED TREATMENT|1965-12-11||||1969-06-29||1965-07-27
TRIAL STUDY 134XCP|VS|99DEAF5F-4F2A-4BFC-ABE7-E947C8FB8162|1|||TRSKNF|TRICEPS SKINFOLD THICKNESS|||SEMI-RECUMBENT||F|||KG/M2|NOT DONE||C7 VERTEBRA|LEFT|Y|N|NA|||U|2||58||RUN-IN|1968-04-02||||1968-01-18||1972-03-12
TRIAL STUDY 134XCP|VS|99DEAF5F-4F2A-4BFC-ABE7-E947C8FB8162|2|||FTWTGAPL|FETAL WEIGHT-FOR-GEST AGE PERCENTILE|||STANDING, BENT FORWARD||G|||CMHG|NOT DONE||PERITONEAL CAVITY|BILATERAL|Y|NA|N|||U|2||58||TREATMENT|1964-02-22||||1964-02-14||1966-02-11
TRIAL STUDY 134XCP|VS|99DEAF5F-4F2A-4BFC-ABE7-E947C8FB8162|1|||BMI|BODY MASS INDEX|||STANDING||IN|||CM|NOT DONE||SOFT PALATE|RIGHT|U|U|Y|||Y|3||39||RUN-IN|1967-09-03||||1960-02-02||1973-08-31
TRIAL STUDY 134XCP|VS|99DEAF5F-4F2A-4BFC-ABE7-E947C8FB8162|2|||MAP|MEAN ARTERIAL PRESSURE|||SLING||PA|||KG|NOT DONE||PANCREAS, TAIL|IPSILATERAL|U|NA|NA|||Y|3||39||SCREENING|1968-06-30||||1973-07-26||1971-07-03
TRIAL STUDY 134XCP|VS|99DEAF5F-4F2A-4BFC-ABE7-E947C8FB8162|1|||BMIAPCTL|BMI-FOR-AGE PERCENTILE|||STANDING, BENT FORWARD||HZ|||C|NOT DONE||TOE|RIGHT|Y|U|Y|||U|4||88||FOLLOW-UP|1961-09-26||||1970-10-31||1969-02-18
TRIAL STUDY 134XCP|VS|99DEAF5F-4F2A-4BFC-ABE7-E947C8FB8162|2|||WTAPCTL|WEIGHT-FOR-AGE PERCENTILE|||SEMI-FOWLERS||RATIO|||C|NOT DONE||TRIANGULAR-HAMATE JOINT|IPSILATERAL|Y|N|NA|||U|4||88||INDUCTION TREATMENT|1962-10-24||||1971-03-13||1961-06-04
TRIAL STUDY 134XCP|VS|99DEAF5F-4F2A-4BFC-ABE7-E947C8FB8162|1|||MUARMCIR|MID-UPPER ARM CIRCUMFERENCE|||REVERSE TRENDELENBURG||RATIO|||M2|NOT DONE||SHOULDER JOINT TENDONS|IPSILATERAL|N|NA|U|||U|5||7||FOLLOW-UP|1970-06-19||||1972-01-24||1972-10-28
TRIAL STUDY 134XCP|VS|99DEAF5F-4F2A-4BFC-ABE7-E947C8FB8162|2|||WEIGHT|WEIGHT|||UNCONSTRAINED||MM|||M2|NOT DONE||MEDIASTINUM, SUPERIOR|CONTRALATERAL|N|U|NA|||NA|5||7||RUN-IN|1964-06-01||||1965-01-24||1965-02-16
TRIAL STUDY 134XCP|VS|A848B1B5-679F-4C45-AD73-6506604C835E|1|||FTHR|FETAL HEART RATE|||SEMI-FOWLERS||KCAL/DAY|||MMHG|NOT DONE||HIP ADDUCTORS|RIGHT|Y|N|U|||N|1||38||BASELINE|1963-04-12||||1968-08-13||1970-04-25
TRIAL STUDY 134XCP|VS|A848B1B5-679F-4C45-AD73-6506604C835E|2|||SYSBP|SYSTOLIC BLOOD PRESSURE|||STANDING, BENT FORWARD||IN|||%|NOT DONE||ILIAC FOSSA|BILATERAL|NA|Y|NA|||NA|1||38||INDUCTION TREATMENT|1971-01-23||||1968-09-25||1966-06-13
TRIAL STUDY 134XCP|VS|A848B1B5-679F-4C45-AD73-6506604C835E|1|||FTHR|FETAL HEART RATE|||SEMI-FOWLERS||CM|||M|NOT DONE||LESSER TROCHANTER|UNILATERAL|N|U|NA|||N|2||58||OBSERVATION|1963-06-29||||1970-06-02||1970-02-05
TRIAL STUDY 134XCP|VS|A848B1B5-679F-4C45-AD73-6506604C835E|2|||HDCIRC|HEAD CIRCUMFERENCE|||UNCONSTRAINED||KG/M2|||WATT|NOT DONE||PATELLA|BILATERAL|N|NA|U|||NA|2||58||FOLLOW-UP|1973-08-07||||1965-09-25||1971-12-16
TRIAL STUDY 134XCP|VS|A848B1B5-679F-4C45-AD73-6506604C835E|1|||FTWTGAPL|FETAL WEIGHT-FOR-GEST AGE PERCENTILE|||REVERSE TRENDELENBURG||KG|||G|NOT DONE||OCULOMOTOR NERVE|IPSILATERAL|U|N|NA|||U|3||39||INDUCTION TREATMENT|1972-03-04||||1968-11-29||1972-05-16
TRIAL STUDY 134XCP|VS|A848B1B5-679F-4C45-AD73-6506604C835E|2|||HDCIRC|HEAD CIRCUMFERENCE|||STANDING||KG/M2|||KG|NOT DONE||IRIS|RIGHT|U|U|N|||NA|3||39||TREATMENT|1960-11-12||||1965-05-22||1967-03-03
TRIAL STUDY 134XCP|VS|A848B1B5-679F-4C45-AD73-6506604C835E|1|||SYSBP|SYSTOLIC BLOOD PRESSURE|||UNCONSTRAINED||BEATS/MIN|||MET|NOT DONE||RECTUS FEMORIS MUSCLE|BILATERAL|NA|Y|N|||NA|4||88||TREATMENT|1969-04-12||||1970-07-12||1961-09-07
TRIAL STUDY 134XCP|VS|A848B1B5-679F-4C45-AD73-6506604C835E|2|||MAXPREHR|MAXIMUM PREDICTED HEART RATE|||UNCONSTRAINED||BEATS/MIN|||F|NOT DONE||HILAR|BILATERAL|Y|U|Y|||NA|4||88||TREATMENT|1971-12-06||||1961-02-09||1961-12-23
TRIAL STUDY 134XCP|VS|A848B1B5-679F-4C45-AD73-6506604C835E|1|||FTHDCIRC|FETAL HEAD CIRCUMFERENCE|||STANDING, BENT FORWARD||HZ|||K|NOT DONE||PERIURETHRAL REGION|LATERAL|Y|NA|N|||NA|5||7||OBSERVATION|1965-02-26||||1967-08-23||1971-12-22
TRIAL STUDY 134XCP|VS|A848B1B5-679F-4C45-AD73-6506604C835E|2|||ABSKNF|ABDOMINAL SKINFOLD THICKNESS|||UNCONSTRAINED||G|||F|NOT DONE||EXTRAHEPATIC BILE DUCT|CONTRALATERAL|N|Y|Y|||NA|5||7||CONTINUATION TREATMENT|1960-04-02||||1967-04-30||1964-12-23
TRIAL STUDY 134XCP|VS|0C1AA66D-A2FC-4F68-B9B6-89F270FD4D47|1|||ABSKNF|ABDOMINAL SKINFOLD THICKNESS|||SEMI-RECUMBENT||MM|||MM|NOT DONE||ILIOTIBIAL BAND|RIGHT|NA|N|Y|||N|1||38||BLINDED TREATMENT|1962-06-17||||1962-06-16||1968-05-24
TRIAL STUDY 134XCP|VS|0C1AA66D-A2FC-4F68-B9B6-89F270FD4D47|2|||BSA|BODY SURFACE AREA|||RIGHT LATERAL DECUBITUS||MMHG|||WATT|NOT DONE||SKIN OF THE THIGH|IPSILATERAL|U|U|N|||U|1||38||OBSERVATION|1961-06-21||||1972-06-23||1968-09-26
TRIAL STUDY 134XCP|VS|0C1AA66D-A2FC-4F68-B9B6-89F270FD4D47|1|||HIPCIR|HIP CIRCUMFERENCE|||REVERSE TRENDELENBURG||KCAL/DAY|||KG/M2|NOT DONE||GLOBUS PALLIDUS|LATERAL|Y|NA|NA|||N|2||58||RUN-IN|1973-09-05||||1969-08-16||1962-10-01
TRIAL STUDY 134XCP|VS|0C1AA66D-A2FC-4F68-B9B6-89F270FD4D47|2|||KNEEHEEL|KNEE TO HEEL LENGTH|||STANDING, BENT FORWARD||PA|||BEATS/MIN|NOT DONE||PERIPHERAL NERVE|IPSILATERAL|N|Y|N|||NA|2||58||INDUCTION TREATMENT|1965-09-05||||1972-09-01||1961-01-29
TRIAL STUDY 134XCP|VS|0C1AA66D-A2FC-4F68-B9B6-89F270FD4D47|1|||SSSKNF|SUBSCAPULAR SKINFOLD THICKNESS|||STANDING, BENT FORWARD||F|||HZ|NOT DONE||STRIATUM|RIGHT|N|Y|N|||NA|3||39||RUN-IN|1965-03-04||||1960-01-11||1970-04-29
TRIAL STUDY 134XCP|VS|0C1AA66D-A2FC-4F68-B9B6-89F270FD4D47|2|||FTWTGAPL|FETAL WEIGHT-FOR-GEST AGE PERCENTILE|||PRONE||CM|||%|NOT DONE||ESOPHAGUS, MIDDLE THIRD|LEFT|U|Y|N|||Y|3||39||TREATMENT|1967-03-12||||1965-05-06||1972-04-24
TRIAL STUDY 134XCP|VS|0C1AA66D-A2FC-4F68-B9B6-89F270FD4D47|1|||PULSEPR|PULSE PRESSURE|||SUPINE||BEATS/MIN|||F|NOT DONE||LUNG, RIGHT, INFERIOR LOBE, ANTERIOR BASAL SEGMENT|LATERAL|N|U|U|||N|4||88||CONTINUATION TREATMENT|1964-11-07||||1969-09-08||1966-10-20
TRIAL STUDY 134XCP|VS|0C1AA66D-A2FC-4F68-B9B6-89F270FD4D47|2|||WAISTHIP|WAIST TO HIP RATIO|||RIGHT LATERAL DECUBITUS||KG|||M|NOT DONE||BRONCHUS|CONTRALATERAL|Y|U|Y|||U|4||88||WASHOUT|1965-11-16||||1961-05-23||1960-12-24
TRIAL STUDY 134XCP|VS|0C1AA66D-A2FC-4F68-B9B6-89F270FD4D47|1|||WAISTHIP|WAIST TO HIP RATIO|||SITTING, LEGS DEPENDENT||PA|||C|NOT DONE||DISTAL PHALANX 2 OF THE HAND|BILATERAL|NA|U|NA|||Y|5||7||TREATMENT|1962-11-05||||1963-08-11||1960-03-31
TRIAL STUDY 134XCP|VS|0C1AA66D-A2FC-4F68-B9B6-89F270FD4D47|2|||FTEWT|FETAL ESTIMATED WEIGHT|||TRENDELENBURG||BREATHS/MIN|||LB|NOT DONE||LEFT VENTRICULAR MID ANTERIOR SEGMENT|RIGHT|U|N|NA|||Y|5||7||SCREENING|1966-11-05||||1972-09-07||1971-08-02
TRIAL STUDY 134XCP|VS|ABA9682E-D373-48DA-A7BD-68AB1563CFD6|1|||FTHDCIRC|FETAL HEAD CIRCUMFERENCE|||RIGHT LATERAL DECUBITUS||BEATS/MIN|||KG/M2|NOT DONE||ACCESSORY RENAL ARTERY|CONTRALATERAL|Y|Y|U|||Y|1||38||TREATMENT|1973-03-09||||1965-01-11||1972-11-28
TRIAL STUDY 134XCP|VS|ABA9682E-D373-48DA-A7BD-68AB1563CFD6|2|||OXYSAT|OXYGEN SATURATION|||PRONE||KCAL/DAY|||HZ|NOT DONE||ADDUCTOR POLLICIS MUSCLE|BILATERAL|Y|NA|Y|||N|1||38||FOLLOW-UP|1971-10-16||||1961-08-13||1962-04-18
TRIAL STUDY 134XCP|VS|ABA9682E-D373-48DA-A7BD-68AB1563CFD6|1|||CHESTCIR|CHEST CIRCUMFERENCE|||FOWLERS||PA|||WATT|NOT DONE||FACE|UNILATERAL|NA|N|U|||NA|2||58||LONG-TERM FOLLOW-UP|1973-05-10||||1961-01-25||1960-06-03
TRIAL STUDY 134XCP|VS|ABA9682E-D373-48DA-A7BD-68AB1563CFD6|2|||FTHDCIRC|FETAL HEAD CIRCUMFERENCE|||LATERAL DECUBITUS||MM|||LB|NOT DONE||DISTAL INTERPHALANGEAL JOINT 5 OF THE HAND|LEFT|NA|U|Y|||Y|2||58||LONG-TERM FOLLOW-UP|1960-05-21||||1969-11-11||1969-03-16
TRIAL STUDY 134XCP|VS|ABA9682E-D373-48DA-A7BD-68AB1563CFD6|1|||SSSKNF|SUBSCAPULAR SKINFOLD THICKNESS|||SEMI-RECUMBENT||RATIO|||BREATHS/MIN|NOT DONE||ANTRUM PYLORI|UNILATERAL|Y|NA|N|||U|3||39||OPEN LABEL TREATMENT|1964-01-01||||1971-10-06||1968-11-02
TRIAL STUDY 134XCP|VS|ABA9682E-D373-48DA-A7BD-68AB1563CFD6|2|||CHESTCIR|CHEST CIRCUMFERENCE|||SUPINE||HZ|||CM|NOT DONE||TRAPEZOID-CAPITATE JOINT|IPSILATERAL|Y|Y|U|||NA|3||39||OBSERVATION|1970-07-08||||1967-04-20||1968-03-31
TRIAL STUDY 134XCP|VS|ABA9682E-D373-48DA-A7BD-68AB1563CFD6|1|||BMI|BODY MASS INDEX|||SITTING||KG/M2|||G|NOT DONE||PROXIMAL INTERPHALANGEAL JOINT 4 OF THE FOOT|IPSILATERAL|N|U|Y|||N|4||88||LONG-TERM FOLLOW-UP|1973-04-05||||1969-07-20||1971-12-18
TRIAL STUDY 134XCP|VS|ABA9682E-D373-48DA-A7BD-68AB1563CFD6|2|||TEMP|TEMPERATURE|||SITTING||PA|||G|NOT DONE||INTERPHALANGEAL JOINT 1 OF THE FOOT|LEFT|N|U|N|||NA|4||88||RUN-IN|1965-01-16||||1969-05-21||1962-08-04
TRIAL STUDY 134XCP|VS|ABA9682E-D373-48DA-A7BD-68AB1563CFD6|1|||ULNARL|ULNAR LENGTH|||LEFT LATERAL DECUBITUS||RATIO|||PA|NOT DONE||GREAT VESSELS|UNILATERAL|NA|Y|U|||Y|5||7||LONG-TERM FOLLOW-UP|1965-11-30||||1960-07-28||1969-05-21
TRIAL STUDY 134XCP|VS|ABA9682E-D373-48DA-A7BD-68AB1563CFD6|2|||FTMANDL|FETAL MANDIBULAR LENGTH|||STANDING, BENT FORWARD||MET|||M|NOT DONE||MAIN BRONCHUS, LEFT|LEFT|Y|U|U|||U|5||7||FOLLOW-UP|1965-03-22||||1962-04-20||1965-01-27
TRIAL STUDY 134XCP|VS|FC155F37-522F-4620-BBFF-4999D37C1379|1|||BMIAPCTL|BMI-FOR-AGE PERCENTILE|||STANDING, BENT FORWARD||G|||MMHG|NOT DONE||FOOT DIGIT 5|LATERAL|Y|NA|Y|||Y|1||38||FOLLOW-UP|1971-09-30||||1965-09-06||1961-03-06
TRIAL STUDY 134XCP|VS|FC155F37-522F-4620-BBFF-4999D37C1379|2|||HR|HEART RATE|||SEMI-FOWLERS||G|||CMHG|NOT DONE||SKIN OF THE KNEE|CONTRALATERAL|U|NA|NA|||U|1||38||TREATMENT|1965-01-13||||1969-11-07||1960-12-28
TRIAL STUDY 134XCP|VS|FC155F37-522F-4620-BBFF-4999D37C1379|1|||CHESTCIR|CHEST CIRCUMFERENCE|||RIGHT LATERAL DECUBITUS||MET|||IN|NOT DONE||ANTERIOR SUPERIOR ILIAC SPINE|LATERAL|NA|U|Y|||NA|2||58||TREATMENT|1964-10-02||||1961-06-03||1965-05-18
TRIAL STUDY 134XCP|VS|FC155F37-522F-4620-BBFF-4999D37C1379|2|||BODLNGTH|BODY LENGTH|||UNCONSTRAINED||KG/M2|||HZ|NOT DONE||COCCYGEAL VERTEBRA|RIGHT|N|U|U|||N|2||58||LONG-TERM FOLLOW-UP|1962-03-24||||1963-04-08||1968-10-07
TRIAL STUDY 134XCP|VS|FC155F37-522F-4620-BBFF-4999D37C1379|1|||CPLRFLT|CAPILLARY REFILL TIME|||STANDING||KG/M2|||M|NOT DONE||PROXIMAL PHALANX 4 OF THE HAND|IPSILATERAL|N|NA|N|||N|3||39||BASELINE|1969-12-22||||1970-12-26||1964-08-01
TRIAL STUDY 134XCP|VS|FC155F37-522F-4620-BBFF-4999D37C1379|2|||RESP|RESPIRATORY RATE|||TRENDELENBURG||MMHG|||PA|NOT DONE||MESENTERY|LEFT|N|N|U|||N|3||39||TREATMENT|1963-07-02||||1962-08-27||1970-10-16
TRIAL STUDY 134XCP|VS|FC155F37-522F-4620-BBFF-4999D37C1379|1|||DBPHPCTL|DIASTOLIC BP-FOR-HEIGHT PERCENTILE|||REVERSE TRENDELENBURG||MET|||G|NOT DONE||LUNG, RIGHT|LATERAL|N|Y|U|||U|4||88||BASELINE|1962-06-12||||1965-05-25||1971-06-28
TRIAL STUDY 134XCP|VS|FC155F37-522F-4620-BBFF-4999D37C1379|2|||ULNARL|ULNAR LENGTH|||SEMI-RECUMBENT||LB|||IN|NOT DONE||LINGULA OF THE LUNG|IPSILATERAL|N|NA|N|||N|4||88||OBSERVATION|1973-05-29||||1960-03-27||1962-11-18
TRIAL STUDY 134XCP|VS|FC155F37-522F-4620-BBFF-4999D37C1379|1|||LBM|LEAN BODY MASS|||STANDING, BENT FORWARD||MMHG|||KG/M2|NOT DONE||SACRUM|CONTRALATERAL|N|Y|NA|||U|5||7||RUN-IN|1960-11-11||||1973-01-16||1961-07-07
TRIAL STUDY 134XCP|VS|FC155F37-522F-4620-BBFF-4999D37C1379|2|||TEMP|TEMPERATURE|||FOWLERS||RATIO|||C|NOT DONE||VASTUS LATERALIS MUSCLE|BILATERAL|U|U|U|||NA|5||7||BASELINE|1966-04-07||||1967-02-18||1962-08-16
TRIAL STUDY 134XCP|VS|20F817BC-4C89-4F6C-AA45-36CE786A73A8|1|||NECKCIR|NECK CIRCUMFERENCE|||UNCONSTRAINED||G|||CMHG|NOT DONE||PARAMETRIUM|CONTRALATERAL|NA|U|U|||Y|1||38||SCREENING|1960-10-13||||1965-02-23||1966-01-23
TRIAL STUDY 134XCP|VS|20F817BC-4C89-4F6C-AA45-36CE786A73A8|2|||DIABP|DIASTOLIC BLOOD PRESSURE|||DECUBITUS||HZ|||LB|NOT DONE||PELVIC LYMPH NODE|LEFT|U|N|Y|||NA|1||38||BLINDED TREATMENT|1971-07-16||||1970-08-10||1962-01-04
TRIAL STUDY 134XCP|VS|20F817BC-4C89-4F6C-AA45-36CE786A73A8|1|||SSSKNF|SUBSCAPULAR SKINFOLD THICKNESS|||SITTING, LEGS DEPENDENT||HZ|||KCAL/DAY|NOT DONE||ASCENDING AORTA|LEFT|U|Y|U|||NA|2||58||OPEN LABEL TREATMENT|1970-09-20||||1968-03-27||1969-02-24
TRIAL STUDY 134XCP|VS|20F817BC-4C89-4F6C-AA45-36CE786A73A8|2|||PULSE|PULSE RATE|||FOWLERS||MMHG|||C|NOT DONE||ACCESSORY RENAL ARTERY|LATERAL|Y|U|Y|||U|2||58||FOLLOW-UP|1967-11-25||||1968-12-28||1970-04-07
TRIAL STUDY 134XCP|VS|20F817BC-4C89-4F6C-AA45-36CE786A73A8|1|||MAP|MEAN ARTERIAL PRESSURE|||SUPINE||RATIO|||CMHG|NOT DONE||DISTAL RADIOULNAR JOINT|LATERAL|U|U|N|||NA|3||39||SCREENING|1965-01-19||||1972-06-09||1962-08-25
TRIAL STUDY 134XCP|VS|20F817BC-4C89-4F6C-AA45-36CE786A73A8|2|||INTP|INTERPRETATION|||PRONE||MET|||K|NOT DONE||AXILLARY LYMPH NODE LEVEL III|RIGHT|U|N|U|||Y|3||39||INDUCTION TREATMENT|1967-10-03||||1962-05-06||1963-03-03
TRIAL STUDY 134XCP|VS|20F817BC-4C89-4F6C-AA45-36CE786A73A8|1|||SYSBP|SYSTOLIC BLOOD PRESSURE|||SEMI-FOWLERS||K|||CMHG|NOT DONE||PLEURA|UNILATERAL|U|U|NA|||NA|4||88||SCREENING|1965-01-25||||1967-06-24||1970-10-28
TRIAL STUDY 134XCP|VS|20F817BC-4C89-4F6C-AA45-36CE786A73A8|2|||BSA|BODY SURFACE AREA|||STANDING||K|||MMHG|NOT DONE||RAPHE|UNILATERAL|Y|Y|NA|||U|4||88||INDUCTION TREATMENT|1964-11-03||||1971-07-10||1973-05-25
TRIAL STUDY 134XCP|VS|20F817BC-4C89-4F6C-AA45-36CE786A73A8|1|||MANDL|MANDIBULAR LENGTH|||SEMI-FOWLERS||MMHG|||MET|NOT DONE||GASTROINTESTINAL TRACT|CONTRALATERAL|Y|Y|Y|||Y|5||7||FOLLOW-UP|1967-06-17||||1963-05-13||1968-01-03
TRIAL STUDY 134XCP|VS|20F817BC-4C89-4F6C-AA45-36CE786A73A8|2|||TRSKNF|TRICEPS SKINFOLD THICKNESS|||SEMI-FOWLERS||%|||K|NOT DONE||MITRAL VALVE, ANTERIOR CUSP|UNILATERAL|NA|U|U|||N|5||7||BLINDED TREATMENT|1966-07-12||||1972-11-07||1971-06-09
TRIAL STUDY 134XCP|VS|99058E64-9873-4CD5-BB31-28C08758A1B5|1|||ENRGEXP|ENERGY EXPENDITURE|||FOWLERS||HZ|||BREATHS/MIN|NOT DONE||SECOND DIAGONAL BRANCH ARTERY|BILATERAL|U|Y|NA|||N|1||38||WASHOUT|1963-08-12||||1962-11-09||1970-10-19
TRIAL STUDY 134XCP|VS|99058E64-9873-4CD5-BB31-28C08758A1B5|2|||RESP|RESPIRATORY RATE|||UNCONSTRAINED||KCAL/DAY|||CMHG|NOT DONE||ABDOMINAL WALL|IPSILATERAL|Y|U|NA|||NA|1||38||OPEN LABEL TREATMENT|1962-06-11||||1961-07-06||1967-11-11
TRIAL STUDY 134XCP|VS|99058E64-9873-4CD5-BB31-28C08758A1B5|1|||DBPHPCTL|DIASTOLIC BP-FOR-HEIGHT PERCENTILE|||REVERSE TRENDELENBURG||WATT|||KCAL/DAY|NOT DONE||STERNUM|LATERAL|N|NA|Y|||N|2||58||FOLLOW-UP|1973-07-17||||1966-05-18||1971-11-08
TRIAL STUDY 134XCP|VS|99058E64-9873-4CD5-BB31-28C08758A1B5|2|||HTAPCTL|HEIGHT-FOR-AGE PERCENTILE|||DECUBITUS||F|||K|NOT DONE||SALIVARY GLAND|BILATERAL|Y|NA|Y|||Y|2||58||BLINDED TREATMENT|1972-11-10||||1967-12-30||1964-08-05
TRIAL STUDY 134XCP|VS|99058E64-9873-4CD5-BB31-28C08758A1B5|1|||WSTCIR|WAIST CIRCUMFERENCE|||REVERSE TRENDELENBURG||BREATHS/MIN|||CMHG|NOT DONE||PARASPINAL REGION|CONTRALATERAL|U|N|Y|||NA|3||39||INDUCTION TREATMENT|1965-09-05||||1962-11-18||1972-09-24
TRIAL STUDY 134XCP|VS|99058E64-9873-4CD5-BB31-28C08758A1B5|2|||FTHR|FETAL HEART RATE|||RIGHT LATERAL DECUBITUS||PA|||MM|NOT DONE||ASCENDING AORTA, SINUS OF VALSALVA|RIGHT|NA|Y|Y|||U|3||39||LONG-TERM FOLLOW-UP|1969-05-21||||1965-07-23||1970-06-12
TRIAL STUDY 134XCP|VS|99058E64-9873-4CD5-BB31-28C08758A1B5|1|||CHESTCIR|CHEST CIRCUMFERENCE|||SLING||%|||M|NOT DONE||TEMPORAL ARTERY|LEFT|Y|Y|N|||N|4||88||LONG-TERM FOLLOW-UP|1960-03-13||||1971-12-01||1960-10-05
TRIAL STUDY 134XCP|VS|99058E64-9873-4CD5-BB31-28C08758A1B5|2|||CHESTCIR|CHEST CIRCUMFERENCE|||SITTING, LEGS DEPENDENT||RATIO|||KG|NOT DONE||SPLENIC HILAR LYMPH NODE|RIGHT|U|Y|Y|||N|4||88||OBSERVATION|1969-11-04||||1970-04-22||1962-02-19
TRIAL STUDY 134XCP|VS|99058E64-9873-4CD5-BB31-28C08758A1B5|1|||HR|HEART RATE|||DECUBITUS||RATIO|||MET|NOT DONE||IRIS|CONTRALATERAL|N|U|U|||N|5||7||OPEN LABEL TREATMENT|1965-11-07||||1960-07-10||1965-06-03
TRIAL STUDY 134XCP|VS|99058E64-9873-4CD5-BB31-28C08758A1B5|2|||DIABP|DIASTOLIC BLOOD PRESSURE|||STANDING, BENT FORWARD||HZ|||KCAL/DAY|NOT DONE||TRIANGULAR BONE|IPSILATERAL|Y|U|N|||NA|5||7||BASELINE|1966-07-04||||1966-08-01||1965-04-17
TRIAL STUDY 134XCP|VS|656B6693-1C1C-433B-84E3-77E89F0B543E|1|||FTMANDL|FETAL MANDIBULAR LENGTH|||REVERSE TRENDELENBURG||IN|||C|NOT DONE||AXILLARY LYMPH NODE LEVEL II|CONTRALATERAL|U|N|Y|||N|1||38||TREATMENT|1966-12-19||||1965-09-10||1969-10-25
TRIAL STUDY 134XCP|VS|656B6693-1C1C-433B-84E3-77E89F0B543E|2|||HDCIRC|HEAD CIRCUMFERENCE|||FOWLERS||KCAL/DAY|||CMHG|NOT DONE||SKIN OF THE BACK|IPSILATERAL|Y|U|U|||N|1||38||WASHOUT|1971-10-07||||1969-01-24||1965-10-15
TRIAL STUDY 134XCP|VS|656B6693-1C1C-433B-84E3-77E89F0B543E|1|||EWEIGHT|ESTIMATED WEIGHT|||LATERAL DECUBITUS||KG/M2|||%|NOT DONE||SUPRAGLOTTIS|LATERAL|U|NA|NA|||N|2||58||INDUCTION TREATMENT|1964-01-23||||1968-07-06||1964-01-01
TRIAL STUDY 134XCP|VS|656B6693-1C1C-433B-84E3-77E89F0B543E|2|||WSTCIR|WAIST CIRCUMFERENCE|||PRONE||BREATHS/MIN|||K|NOT DONE||DELTOID MUSCLE|RIGHT|U|N|U|||U|2||58||FOLLOW-UP|1964-11-25||||1963-12-21||1972-06-05
TRIAL STUDY 134XCP|VS|656B6693-1C1C-433B-84E3-77E89F0B543E|1|||SBPAPCTL|SYSTOLIC BP-FOR-AGE PERCENTILE|||FOWLERS||HZ|||MET|NOT DONE||SCAPHOID-LUNATE JOINT|RIGHT|NA|U|U|||NA|3||39||RUN-IN|1967-11-19||||1963-03-22||1972-12-02
TRIAL STUDY 134XCP|VS|656B6693-1C1C-433B-84E3-77E89F0B543E|2|||WTAPCTL|WEIGHT-FOR-AGE PERCENTILE|||REVERSE TRENDELENBURG||M2|||KG|NOT DONE||LUNG, LEFT, INFERIOR LOBE, SUPERIOR SEGMENT|UNILATERAL|U|N|Y|||U|3||39||CONTINUATION TREATMENT|1970-12-05||||1971-02-23||1962-06-10
TRIAL STUDY 134XCP|VS|656B6693-1C1C-433B-84E3-77E89F0B543E|1|||HIPCIR|HIP CIRCUMFERENCE|||SITTING||LB|||G|NOT DONE||BRAIN STEM|CONTRALATERAL|N|U|N|||Y|4||88||CONTINUATION TREATMENT|1968-08-31||||1973-07-11||1962-08-17
TRIAL STUDY 134XCP|VS|656B6693-1C1C-433B-84E3-77E89F0B543E|2|||DBPAPCTL|DIASTOLIC BP-FOR-AGE PERCENTILE|||STANDING, BENT FORWARD||K|||MMHG|NOT DONE||PERIPANCREATIC LYMPH NODE|BILATERAL|NA|U|N|||N|4||88||OPEN LABEL TREATMENT|1961-12-07||||1970-11-30||1970-08-24
TRIAL STUDY 134XCP|VS|656B6693-1C1C-433B-84E3-77E89F0B543E|1|||TEMPPB|PERIPHERAL BODY TEMPERATURE|||SUPINE||KG/M2|||BEATS/MIN|NOT DONE||RIB 5|RIGHT|N|U|N|||NA|5||7||FOLLOW-UP|1968-04-06||||1962-04-12||1966-01-06
TRIAL STUDY 134XCP|VS|656B6693-1C1C-433B-84E3-77E89F0B543E|2|||BSA|BODY SURFACE AREA|||REVERSE TRENDELENBURG||CMHG|||%|NOT DONE||BILE DUCT|CONTRALATERAL|U|NA|NA|||NA|5||7||INDUCTION TREATMENT|1962-09-26||||1967-07-25||1960-06-16
TRIAL STUDY 134XCP|VS|43C443F9-AB0F-44BE-B28B-63A60EE09205|1|||SBPHPCTL|SYSTOLIC BP-FOR-HEIGHT PERCENTILE|||SITTING||C|||KG/M2|NOT DONE||WRIST JOINT EXTENSOR MUSCLES|LATERAL|U|Y|N|||Y|1||38||BASELINE|1971-06-21||||1965-09-11||1965-12-17
TRIAL STUDY 134XCP|VS|43C443F9-AB0F-44BE-B28B-63A60EE09205|2|||CRWNHEEL|CROWN-TO-HEEL LENGTH|||LATERAL DECUBITUS||M2|||CM|NOT DONE||T5 VERTEBRA|RIGHT|NA|U|Y|||N|1||38||INDUCTION TREATMENT|1964-07-01||||1960-03-28||1972-07-06
TRIAL STUDY 134XCP|VS|43C443F9-AB0F-44BE-B28B-63A60EE09205|1|||TBW|TOTAL BODY WATER|||LATERAL DECUBITUS||LB|||WATT|NOT DONE||RENAL PELVIS|RIGHT|NA|NA|N|||Y|2||58||BASELINE|1962-01-16||||1968-03-16||1961-10-26
TRIAL STUDY 134XCP|VS|43C443F9-AB0F-44BE-B28B-63A60EE09205|2|||ULNARL|ULNAR LENGTH|||STANDING, BENT FORWARD||G|||G|NOT DONE||SKIN OF THE CHEST|LEFT|NA|U|Y|||N|2||58||BLINDED TREATMENT|1964-05-04||||1960-02-25||1962-06-27
TRIAL STUDY 134XCP|VS|43C443F9-AB0F-44BE-B28B-63A60EE09205|1|||SBPHPCTL|SYSTOLIC BP-FOR-HEIGHT PERCENTILE|||SEMI-RECUMBENT||KG/M2|||BREATHS/MIN|NOT DONE||GASTROINTESTINAL SYSTEM|LATERAL|N|NA|N|||U|3||39||SCREENING|1973-03-12||||1964-08-19||1965-08-12
TRIAL STUDY 134XCP|VS|43C443F9-AB0F-44BE-B28B-63A60EE09205|2|||KNEEHEEL|KNEE TO HEEL LENGTH|||UNCONSTRAINED||WATT|||MM|NOT DONE||FOOT|BILATERAL|U|NA|Y|||NA|3||39||TREATMENT|1971-08-03||||1961-06-23||1965-12-10
TRIAL STUDY 134XCP|VS|43C443F9-AB0F-44BE-B28B-63A60EE09205|1|||TEMP|TEMPERATURE|||TRENDELENBURG||HZ|||KG|NOT DONE||PROXIMAL CIRCUMFLEX ARTERY|RIGHT|N|U|Y|||N|4||88||INDUCTION TREATMENT|1962-02-15||||1964-08-11||1971-10-20
TRIAL STUDY 134XCP|VS|43C443F9-AB0F-44BE-B28B-63A60EE09205|2|||FRMSIZE|BODY FRAME SIZE|||SEMI-FOWLERS||MMHG|||BEATS/MIN|NOT DONE||SECOND OBTUSE MARGINAL BRANCH ARTERY|RIGHT|N|U|NA|||Y|4||88||OPEN LABEL TREATMENT|1963-04-17||||1960-10-16||1966-09-28
TRIAL STUDY 134XCP|VS|43C443F9-AB0F-44BE-B28B-63A60EE09205|1|||TBW|TOTAL BODY WATER|||SEMI-RECUMBENT||IN|||KCAL/DAY|NOT DONE||PROXIMAL INTERPHALANGEAL JOINT 2 OF THE HAND|RIGHT|NA|N|N|||N|5||7||FOLLOW-UP|1966-04-19||||1971-07-22||1962-05-13
TRIAL STUDY 134XCP|VS|43C443F9-AB0F-44BE-B28B-63A60EE09205|2|||EWEIGHT|ESTIMATED WEIGHT|||LATERAL DECUBITUS||KG/M2|||HZ|NOT DONE||ETHMOID BONE|LEFT|N|NA|Y|||Y|5||7||FOLLOW-UP|1960-10-11||||1972-07-26||1968-12-15
TRIAL STUDY 134XCP|VS|37FF91B1-CE3C-4587-85CE-F76B880D40E7|1|||FTMANDL|FETAL MANDIBULAR LENGTH|||LATERAL DECUBITUS||IN|||BREATHS/MIN|NOT DONE||INFRARENAL AORTA|UNILATERAL|N|NA|U|||Y|1||38||WASHOUT|1963-08-20||||1963-08-06||1968-07-24
TRIAL STUDY 134XCP|VS|37FF91B1-CE3C-4587-85CE-F76B880D40E7|2|||HEIGHT|HEIGHT|||SEMI-RECUMBENT||WATT|||CM|NOT DONE||MAMMARY GLAND|BILATERAL|N|Y|Y|||U|1||38||OBSERVATION|1965-07-16||||1970-04-19||1962-12-12
TRIAL STUDY 134XCP|VS|37FF91B1-CE3C-4587-85CE-F76B880D40E7|1|||MUARMCIR|MID-UPPER ARM CIRCUMFERENCE|||STANDING, BENT FORWARD||K|||CM|NOT DONE||ADDUCTOR POLLICIS MUSCLE|UNILATERAL|Y|Y|U|||NA|2||58||FOLLOW-UP|1965-05-24||||1969-02-05||1969-05-08
TRIAL STUDY 134XCP|VS|37FF91B1-CE3C-4587-85CE-F76B880D40E7|2|||HDCIRC|HEAD CIRCUMFERENCE|||TRENDELENBURG||CM|||G|NOT DONE||L5 VERTEBRA|LATERAL|U|U|Y|||N|2||58||OPEN LABEL TREATMENT|1970-12-24||||1970-06-14||1963-11-06
TRIAL STUDY 134XCP|VS|37FF91B1-CE3C-4587-85CE-F76B880D40E7|1|||TEMP|TEMPERATURE|||SEMI-RECUMBENT||BEATS/MIN|||F|NOT DONE||TYMPANIC MEMBRANE|LATERAL|Y|Y|N|||U|3||39||OBSERVATION|1962-05-07||||1966-02-16||1967-05-22
TRIAL STUDY 134XCP|VS|37FF91B1-CE3C-4587-85CE-F76B880D40E7|2|||SSSKNF|SUBSCAPULAR SKINFOLD THICKNESS|||SEMI-RECUMBENT||RATIO|||PA|NOT DONE||L4 VERTEBRA|RIGHT|N|Y|U|||N|3||39||RUN-IN|1963-06-03||||1964-09-21||1965-01-27
TRIAL STUDY 134XCP|VS|37FF91B1-CE3C-4587-85CE-F76B880D40E7|1|||TEMP|TEMPERATURE|||LEFT LATERAL DECUBITUS||K|||KG/M2|NOT DONE||ESOPHAGUS, UPPER THIRD|BILATERAL|U|Y|Y|||U|4||88||OBSERVATION|1965-10-30||||1965-12-10||1963-05-22
TRIAL STUDY 134XCP|VS|37FF91B1-CE3C-4587-85CE-F76B880D40E7|2|||CHESTCIR|CHEST CIRCUMFERENCE|||LEFT LATERAL DECUBITUS||C|||HZ|NOT DONE||ADRENAL GLAND|CONTRALATERAL|N|NA|U|||NA|4||88||WASHOUT|1964-03-24||||1965-11-21||1965-11-04
TRIAL STUDY 134XCP|VS|37FF91B1-CE3C-4587-85CE-F76B880D40E7|1|||ENRGEXP|ENERGY EXPENDITURE|||STANDING, BENT FORWARD||IN|||M2|NOT DONE||LARYNX|RIGHT|N|U|Y|||U|5||7||LONG-TERM FOLLOW-UP|1961-11-21||||1973-01-11||1970-07-25
TRIAL STUDY 134XCP|VS|37FF91B1-CE3C-4587-85CE-F76B880D40E7|2|||ULNARL|ULNAR LENGTH|||UNCONSTRAINED||IN|||F|NOT DONE||FACIAL BONE|RIGHT|U|N|U|||NA|5||7||OBSERVATION|1965-08-01||||1965-10-29||1973-06-01
TRIAL STUDY 134XCP|VS|9C25B17D-2E57-4EBD-93AF-F4439EB77B03|1|||HR|HEART RATE|||STANDING||IN|||LB|NOT DONE||SKIN FOLD|RIGHT|Y|NA|N|||Y|1||38||CONTINUATION TREATMENT|1966-07-07||||1971-02-28||1971-11-26
TRIAL STUDY 134XCP|VS|9C25B17D-2E57-4EBD-93AF-F4439EB77B03|2|||ABSKNF|ABDOMINAL SKINFOLD THICKNESS|||STANDING, BENT FORWARD||F|||BREATHS/MIN|NOT DONE||SPLENIC LYMPH NODE|RIGHT|NA|NA|N|||N|1||38||SCREENING|1968-03-24||||1966-02-11||1963-12-03
TRIAL STUDY 134XCP|VS|9C25B17D-2E57-4EBD-93AF-F4439EB77B03|1|||EWEIGHT|ESTIMATED WEIGHT|||RIGHT LATERAL DECUBITUS||RATIO|||F|NOT DONE||ENTORHINAL CORTEX|LATERAL|U|U|NA|||Y|2||58||OBSERVATION|1970-11-12||||1963-10-19||1971-11-27
TRIAL STUDY 134XCP|VS|9C25B17D-2E57-4EBD-93AF-F4439EB77B03|2|||BODYFATM|BODY FAT MEASUREMENT|||UNCONSTRAINED||MET|||RATIO|NOT DONE||SUBGLOTTIS|LATERAL|Y|NA|NA|||N|2||58||BASELINE|1960-07-13||||1964-02-19||1961-05-21
TRIAL STUDY 134XCP|VS|9C25B17D-2E57-4EBD-93AF-F4439EB77B03|1|||SAO2FIO2|OXYGEN SATURATION/FRACTION INSPIRED O2|||LATERAL DECUBITUS||M2|||CM|NOT DONE||RADIUS-LUNATE JOINT|IPSILATERAL|NA|Y|U|||N|3||39||OBSERVATION|1963-09-11||||1972-04-05||1966-05-27
TRIAL STUDY 134XCP|VS|9C25B17D-2E57-4EBD-93AF-F4439EB77B03|2|||WSTCIR|WAIST CIRCUMFERENCE|||SITTING, LEGS DEPENDENT||BREATHS/MIN|||RATIO|NOT DONE||CALCANEAL TUBEROSITY|UNILATERAL|NA|Y|N|||Y|3||39||OBSERVATION|1963-03-25||||1960-10-12||1970-01-29
TRIAL STUDY 134XCP|VS|9C25B17D-2E57-4EBD-93AF-F4439EB77B03|1|||SSSKNF|SUBSCAPULAR SKINFOLD THICKNESS|||LEFT LATERAL DECUBITUS||C|||HZ|NOT DONE||VAGINA|UNILATERAL|Y|U|NA|||NA|4||88||RUN-IN|1967-10-10||||1970-12-28||1968-01-07
TRIAL STUDY 134XCP|VS|9C25B17D-2E57-4EBD-93AF-F4439EB77B03|2|||WTAPCTL|WEIGHT-FOR-AGE PERCENTILE|||LATERAL DECUBITUS||CMHG|||C|NOT DONE||GREAT TROCHANTER|IPSILATERAL|N|N|Y|||N|4||88||BLINDED TREATMENT|1965-08-05||||1961-03-15||1973-07-10
TRIAL STUDY 134XCP|VS|9C25B17D-2E57-4EBD-93AF-F4439EB77B03|1|||BSA|BODY SURFACE AREA|||SLING||CMHG|||MM|NOT DONE||COLON, ASCENDING|UNILATERAL|N|N|N|||Y|5||7||TREATMENT|1970-07-24||||1966-11-15||1971-03-01
TRIAL STUDY 134XCP|VS|9C25B17D-2E57-4EBD-93AF-F4439EB77B03|2|||SSSKNF|SUBSCAPULAR SKINFOLD THICKNESS|||SITTING||%|||F|NOT DONE||MEDIASTINUM, ANTERIOR|LATERAL|NA|N|Y|||U|5||7||INDUCTION TREATMENT|1965-09-28||||1962-12-17||1968-10-04
TRIAL STUDY 134XCP|VS|49017491-2C28-4F86-BF72-CF83651052F6|1|||TBW|TOTAL BODY WATER|||PRONE||MET|||HZ|NOT DONE||TRUNK|IPSILATERAL|U|N|NA|||N|1||38||BASELINE|1973-01-20||||1971-06-07||1962-07-12
TRIAL STUDY 134XCP|VS|49017491-2C28-4F86-BF72-CF83651052F6|2|||FTHR|FETAL HEART RATE|||RIGHT LATERAL DECUBITUS||M2|||MMHG|NOT DONE||SMALL SAPHENOUS VEIN|IPSILATERAL|NA|NA|Y|||Y|1||38||CONTINUATION TREATMENT|1964-08-27||||1972-12-10||1960-04-11
TRIAL STUDY 134XCP|VS|49017491-2C28-4F86-BF72-CF83651052F6|1|||BMIAPCTL|BMI-FOR-AGE PERCENTILE|||STANDING||PA|||CM|NOT DONE||RIB 1|LEFT|Y|N|Y|||N|2||58||LONG-TERM FOLLOW-UP|1965-06-21||||1968-02-08||1962-07-28
TRIAL STUDY 134XCP|VS|49017491-2C28-4F86-BF72-CF83651052F6|2|||WEIGHT|WEIGHT|||TRENDELENBURG||CMHG|||PA|NOT DONE||FUNDUS OF THE STOMACH|CONTRALATERAL|U|N|Y|||N|2||58||TREATMENT|1972-10-16||||1964-01-29||1972-09-07
TRIAL STUDY 134XCP|VS|49017491-2C28-4F86-BF72-CF83651052F6|1|||WTAPCTL|WEIGHT-FOR-AGE PERCENTILE|||STANDING||LB|||MMHG|NOT DONE||LUNG, LEFT UPPER LOBE|LATERAL|U|U|U|||NA|3||39||CONTINUATION TREATMENT|1972-03-12||||1960-08-03||1964-12-17
TRIAL STUDY 134XCP|VS|49017491-2C28-4F86-BF72-CF83651052F6|2|||WAISTHIP|WAIST TO HIP RATIO|||TRENDELENBURG||LB|||MET|NOT DONE||RECTUS FEMORIS MUSCLE|IPSILATERAL|N|NA|Y|||U|3||39||OPEN LABEL TREATMENT|1972-01-24||||1972-03-21||1965-10-10
TRIAL STUDY 134XCP|VS|49017491-2C28-4F86-BF72-CF83651052F6|1|||FIO2|FRACTION OF INSPIRED OXYGEN|||SEMI-RECUMBENT||M2|||MM|NOT DONE||PUTAMEN|IPSILATERAL|U|N|U|||Y|4||88||SCREENING|1964-05-02||||1968-02-03||1963-04-13
TRIAL STUDY 134XCP|VS|49017491-2C28-4F86-BF72-CF83651052F6|2|||FTEWT|FETAL ESTIMATED WEIGHT|||RIGHT LATERAL DECUBITUS||KG/M2|||BEATS/MIN|NOT DONE||ACROMION|RIGHT|NA|NA|Y|||N|4||88||FOLLOW-UP|1962-08-31||||1961-07-25||1964-05-25
TRIAL STUDY 134XCP|VS|49017491-2C28-4F86-BF72-CF83651052F6|1|||BMIAPCTL|BMI-FOR-AGE PERCENTILE|||REVERSE TRENDELENBURG||BREATHS/MIN|||M|NOT DONE||EYE, VITREOUS CHAMBER|IPSILATERAL|U|NA|N|||N|5||7||TREATMENT|1963-07-21||||1965-10-28||1963-12-16
TRIAL STUDY 134XCP|VS|49017491-2C28-4F86-BF72-CF83651052F6|2|||EWEIGHT|ESTIMATED WEIGHT|||SEMI-FOWLERS||M2|||MET|NOT DONE||TOOTH CANAL|IPSILATERAL|N|Y|Y|||U|5||7||OPEN LABEL TREATMENT|1968-02-03||||1972-10-02||1961-03-14
TRIAL STUDY 134XCP|VS|DAA65EE6-66ED-4354-935B-1347E1B572A5|1|||SBPAPCTL|SYSTOLIC BP-FOR-AGE PERCENTILE|||SEMI-FOWLERS||IN|||LB|NOT DONE||ENDOCERVIX|LATERAL|NA|NA|Y|||NA|1||38||BASELINE|1969-01-24||||1966-11-02||1960-01-31
TRIAL STUDY 134XCP|VS|DAA65EE6-66ED-4354-935B-1347E1B572A5|2|||INTP|INTERPRETATION|||LEFT LATERAL DECUBITUS||F|||WATT|NOT DONE||ORBIT|LATERAL|NA|N|N|||NA|1||38||RUN-IN|1973-03-03||||1969-10-05||1960-02-13
TRIAL STUDY 134XCP|VS|DAA65EE6-66ED-4354-935B-1347E1B572A5|1|||FTHR|FETAL HEART RATE|||TRENDELENBURG||M|||RATIO|NOT DONE||PRESACRAL LYMPH NODE|IPSILATERAL|U|N|Y|||NA|2||58||SCREENING|1963-04-08||||1960-06-02||1969-12-01
TRIAL STUDY 134XCP|VS|DAA65EE6-66ED-4354-935B-1347E1B572A5|2|||SAD|SAGITTAL ABDOMINAL DIAMETER|||RIGHT LATERAL DECUBITUS||RATIO|||K|NOT DONE||WRIST JOINT EXTENSOR TENDONS|IPSILATERAL|U|U|U|||NA|2||58||OBSERVATION|1973-08-06||||1969-03-13||1964-11-17
TRIAL STUDY 134XCP|VS|DAA65EE6-66ED-4354-935B-1347E1B572A5|1|||INTP|INTERPRETATION|||TRENDELENBURG||WATT|||WATT|NOT DONE||GLOMERULUS|LEFT|U|N|NA|||Y|3||39||OPEN LABEL TREATMENT|1966-08-27||||1973-01-09||1963-05-10
TRIAL STUDY 134XCP|VS|DAA65EE6-66ED-4354-935B-1347E1B572A5|2|||PULSEPR|PULSE PRESSURE|||SITTING, LEGS DEPENDENT||%|||RATIO|NOT DONE||UPPER RESPIRATORY SYSTEM|LATERAL|NA|NA|Y|||NA|3||39||RUN-IN|1970-09-20||||1969-09-17||1964-11-05
TRIAL STUDY 134XCP|VS|DAA65EE6-66ED-4354-935B-1347E1B572A5|1|||IDEALWT|IDEAL BODY WEIGHT|||SITTING, LEGS DEPENDENT||LB|||M2|NOT DONE||PERIPHERAL NERVE|LEFT|N|N|Y|||NA|4||88||OPEN LABEL TREATMENT|1960-07-09||||1965-12-15||1963-11-20
TRIAL STUDY 134XCP|VS|DAA65EE6-66ED-4354-935B-1347E1B572A5|2|||RESP|RESPIRATORY RATE|||SITTING||M2|||RATIO|NOT DONE||FRONTAL LOBE|LEFT|N|NA|N|||Y|4||88||CONTINUATION TREATMENT|1972-10-15||||1968-01-02||1970-09-24
TRIAL STUDY 134XCP|VS|DAA65EE6-66ED-4354-935B-1347E1B572A5|1|||ENRGEXP|ENERGY EXPENDITURE|||SUPINE||IN|||BREATHS/MIN|NOT DONE||WRIST JOINT FLEXOR TENDONS|CONTRALATERAL|Y|U|N|||U|5||7||WASHOUT|1960-02-24||||1965-06-29||1962-01-19
TRIAL STUDY 134XCP|VS|DAA65EE6-66ED-4354-935B-1347E1B572A5|2|||CPLRFLT|CAPILLARY REFILL TIME|||TRENDELENBURG||C|||KG/M2|NOT DONE||FIRST OBTUSE MARGINAL BRANCH ARTERY|BILATERAL|NA|Y|U|||U|5||7||OPEN LABEL TREATMENT|1972-10-01||||1964-05-15||1962-06-17
TRIAL STUDY 134XCP|VS|A440A3E5-F87D-4306-9195-3A842F0DDE33|1|||FARMCIR|FOREARM CIRCUMFERENCE|||SITTING||M|||C|NOT DONE||DISTAL EXTRAHEPATIC BILE DUCT REGION|LATERAL|U|NA|N|||N|1||38||RUN-IN|1964-09-17||||1963-10-29||1965-01-25
TRIAL STUDY 134XCP|VS|A440A3E5-F87D-4306-9195-3A842F0DDE33|2|||WEIGHT|WEIGHT|||FOWLERS||KG/M2|||HZ|NOT DONE||SCAPHOID-LUNATE JOINT|BILATERAL|NA|NA|N|||U|1||38||RUN-IN|1966-12-31||||1971-07-10||1970-07-11
TRIAL STUDY 134XCP|VS|A440A3E5-F87D-4306-9195-3A842F0DDE33|1|||CHESTCIR|CHEST CIRCUMFERENCE|||TRENDELENBURG||C|||IN|NOT DONE||EYE|IPSILATERAL|NA|N|NA|||N|2||58||OBSERVATION|1963-10-28||||1966-12-17||1965-12-15
TRIAL STUDY 134XCP|VS|A440A3E5-F87D-4306-9195-3A842F0DDE33|2|||HDCIRC|HEAD CIRCUMFERENCE|||PRONE||PA|||BREATHS/MIN|NOT DONE||DELTOID MUSCLE|RIGHT|U|Y|NA|||Y|2||58||LONG-TERM FOLLOW-UP|1961-07-04||||1961-05-24||1963-09-18
TRIAL STUDY 134XCP|VS|A440A3E5-F87D-4306-9195-3A842F0DDE33|1|||BODLNGTH|BODY LENGTH|||LATERAL DECUBITUS||CM|||CMHG|NOT DONE||ENDOCARDIUM|RIGHT|U|N|Y|||NA|3||39||TREATMENT|1962-10-22||||1968-06-28||1968-01-30
TRIAL STUDY 134XCP|VS|A440A3E5-F87D-4306-9195-3A842F0DDE33|2|||OXYSAT|OXYGEN SATURATION|||FOWLERS||KCAL/DAY|||MM|NOT DONE||TRACHEOBRONCHIAL TREE|LEFT|U|Y|N|||Y|3||39||LONG-TERM FOLLOW-UP|1970-07-01||||1962-07-24||1971-08-01
TRIAL STUDY 134XCP|VS|A440A3E5-F87D-4306-9195-3A842F0DDE33|1|||CHESTCIR|CHEST CIRCUMFERENCE|||STANDING, BENT FORWARD||M2|||LB|NOT DONE||SIGMOID SINUS|CONTRALATERAL|Y|U|U|||N|4||88||BLINDED TREATMENT|1966-02-13||||1972-11-01||1968-02-23
